ID,TIMESTAMP,TympanicMembrane,Concha,EarCanal,Out_Bottom,Out_Top,Out_Middle,ObjTympanicMembrane,ObjConcha,ObjEarCanal,ObjOut_Bottom,ObjOut_Top,ObjOut_Middle,ACC_X,ACC_Y,ACC_Z,GYRO_X,GYRO_Y,GYRO_Z,MAG_X,MAG_Y,MAG_Z1, 3548, 3225, 3273, 3227, 3189, 3243, 3202, 3182, 3220, 3160, 3105, 3130, 3121, -14630, 35045, 89781, -838, 914, -914, -285000, -405000, -3690001, 3637, 3225, 3271, 3227, 3189, 3243, 3207, 3182, 3222, 3160, 3105, 3130, 3122, -14564, 35051, 90008, -1067, 838, -838, -285000, -453000, -3450001, 3726, 3225, 3271, 3231, 3189, 3241, 3207, 3187, 3222, 3162, 3105, 3131, 3122, -14463, 35152, 89829, -1143, 914, -838, -261000, -501000, -3510001, 3815, 3225, 3271, 3231, 3189, 3241, 3207, 3187, 3222, 3162, 3105, 3131, 3122, -14540, 35027, 89966, -1143, 685, -762, -549000, -453000, -3510001, 3904, 3225, 3271, 3231, 3189, 3241, 3207, 3187, 3222, 3162, 3105, 3131, 3122, -14481, 35015, 90086, -1143, 685, -762, -285000, -429000, -3510001, 3993, 3225, 3271, 3231, 3189, 3241, 3207, 3187, 3222, 3162, 3105, 3131, 3122, -14510, 35039, 90373, -1448, 304, -457, -429000, -477000, -3570001, 4082, 3225, 3275, 3231, 3191, 3241, 3207, 3187, 3225, 3162, 3106, 3131, 3123, -14786, 34901, 89733, -990, 914, -762, -405000, -429000, -3510001, 4253, 3224, 3275, 3229, 3191, 3238, 3212, 3192, 3225, 3164, 3106, 3131, 3123, -14516, 34973, 89924, -762, 1143, -990, -501000, -357000, -3510001, 4342, 3224, 3275, 3229, 3191, 3238, 3212, 3192, 3225, 3164, 3106, 3131, 3123, -14648, 34865, 89954, -1143, 609, -762, -453000, -501000, -3510001, 4431, 3224, 3275, 3229, 3191, 3238, 3212, 3192, 3225, 3164, 3106, 3131, 3123, -14504, 34799, 90546, -838, 914, -914, -357000, -477000, -3450001, 4520, 3224, 3275, 3229, 3191, 3238, 3212, 3192, 3225, 3164, 3106, 3131, 3123, -14552, 34919, 89739, -838, 1219, -990, -405000, -453000, -3450001, 4609, 3224, 3279, 3229, 3193, 3238, 3208, 3192, 3227, 3164, 3107, 3131, 3123, -14660, 34883, 89972, -1524, 533, -685, -285000, -501000, -3690001, 4698, 3229, 3279, 3229, 3193, 3241, 3208, 3195, 3227, 3164, 3107, 3132, 3123, -14660, 34991, 89757, -609, 990, -990, -429000, -525000, -3510001, 4855, 3229, 3279, 3229, 3193, 3241, 3208, 3195, 3227, 3165, 3107, 3132, 3123, -14433, 34829, 90301, -1448, 762, -685, -333000, -453000, -3450001, 4944, 3229, 3279, 3229, 3193, 3241, 3208, 3195, 3227, 3165, 3107, 3132, 3123, -14552, 34949, 89793, -762, 990, -914, -429000, -501000, -3450001, 5033, 3229, 3279, 3229, 3193, 3241, 3208, 3195, 3227, 3165, 3107, 3132, 3123, -14756, 35087, 90008, -1067, 838, -762, -453000, -357000, -3390001, 5122, 3229, 3275, 3229, 3192, 3241, 3209, 3195, 3230, 3165, 3108, 3132, 3124, -14774, 35051, 89990, -609, 1143, -914, -309000, -453000, -3510001, 5211, 3229, 3275, 3229, 3192, 3244, 3209, 3199, 3230, 3165, 3108, 3132, 3124, -14684, 34823, 90092, -1753, 304, -457, -309000, -405000, -3510001, 5300, 3229, 3275, 3230, 3192, 3244, 3209, 3199, 3230, 3166, 3108, 3132, 3124, -14630, 34782, 90481, -1371, 762, -762, -477000, -405000, -3450001, 5476, 3229, 3275, 3230, 3192, 3244, 3209, 3199, 3230, 3166, 3108, 3132, 3124, -14451, 34979, 89841, -1448, 533, -457, -477000, -573000, -3630001, 5565, 3229, 3280, 3230, 3191, 3244, 3209, 3199, 3231, 3166, 3108, 3132, 3124, -14409, 35003, 90744, -990, 609, -762, -381000, -597000, -3570001, 5654, 3229, 3282, 3230, 3191, 3244, 3207, 3199, 3231, 3166, 3108, 3132, 3125, -14660, 34835, 89775, -838, 1295, -990, -453000, -501000, -3570001, 5743, 3229, 3282, 3230, 3191, 3241, 3207, 3202, 3231, 3166, 3108, 3133, 3125, -15121, 34907, 89847, -1143, 685, -914, -405000, -405000, -3570001, 5832, 3229, 3282, 3230, 3191, 3241, 3207, 3202, 3231, 3167, 3108, 3133, 3125, -14857, 34949, 89912, -609, 1371, -1143, -405000, -573000, -3510001, 5921, 3229, 3282, 3230, 3191, 3241, 3207, 3202, 3231, 3167, 3108, 3133, 3125, -14528, 34859, 89805, -1219, 762, -609, -405000, -477000, -3510001, 6098, 3229, 3277, 3230, 3192, 3241, 3207, 3202, 3233, 3167, 3109, 3133, 3125, -14720, 34877, 89763, -1524, 914, -685, -357000, -573000, -3390001, 6187, 3229, 3277, 3230, 3192, 3241, 3206, 3202, 3233, 3167, 3109, 3133, 3126, -14516, 35284, 90193, -838, 762, -838, -381000, -453000, -3630001, 6276, 3230, 3277, 3230, 3192, 3243, 3206, 3205, 3233, 3167, 3109, 3134, 3126, -14893, 35081, 89524, -304, 1143, -1219, -501000, -285000, -3570001, 6365, 3230, 3277, 3234, 3192, 3243, 3206, 3205, 3233, 3167, 3109, 3134, 3126, -14235, 34805, 90630, -1753, 457, -457, -381000, -357000, -3690001, 6454, 3230, 3277, 3234, 3192, 3243, 3206, 3205, 3233, 3167, 3109, 3134, 3126, -14092, 34937, 90552, -1676, 609, -533, -501000, -429000, -3510001, 6543, 3230, 3277, 3234, 3192, 3243, 3206, 3205, 3233, 3167, 3109, 3134, 3126, -14493, 34931, 89865, -1219, 685, -838, -405000, -645000, -3450001, 6706, 3230, 3279, 3234, 3191, 3243, 3208, 3205, 3235, 3167, 3110, 3134, 3127, -14277, 34919, 90750, -1524, 914, -685, -285000, -381000, -3390001, 6795, 3231, 3279, 3234, 3191, 3245, 3208, 3208, 3235, 3167, 3110, 3134, 3127, -14493, 34686, 90002, -1219, 1067, -762, -357000, -501000, -3450001, 6884, 3231, 3279, 3234, 3191, 3245, 3208, 3208, 3235, 3169, 3110, 3134, 3127, -15192, 35045, 89727, -1219, 685, -762, -333000, -381000, -3510001, 6973, 3231, 3279, 3234, 3191, 3245, 3208, 3208, 3235, 3169, 3110, 3134, 3127, -14451, 34907, 90193, -1295, 457, -609, -237000, -453000, -3390001, 7062, 3231, 3279, 3234, 3191, 3245, 3208, 3208, 3235, 3169, 3110, 3134, 3127, -14875, 34919, 89781, -457, 1448, -1295, -309000, -477000, -3510001, 7151, 3231, 3278, 3234, 3192, 3245, 3208, 3208, 3236, 3169, 3110, 3134, 3127, -14588, 35015, 90319, -1829, 609, -609, -501000, -357000, -3450001, 7330, 3232, 3278, 3235, 3192, 3244, 3208, 3210, 3236, 3170, 3110, 3134, 3127, -14768, 34889, 90283, -1067, 762, -685, -429000, -429000, -3510001, 7419, 3232, 3278, 3235, 3192, 3244, 3208, 3210, 3236, 3170, 3110, 3134, 3127, -14678, 34919, 89972, -838, 914, -838, -453000, -549000, -3570001, 7508, 3232, 3278, 3235, 3192, 3244, 3208, 3210, 3236, 3170, 3110, 3134, 3127, -14654, 34895, 90128, -1219, 838, -685, -501000, -429000, -3450001, 7597, 3232, 3276, 3235, 3194, 3244, 3208, 3210, 3237, 3170, 3111, 3134, 3127, -14905, 34907, 89894, -1219, 762, -685, -477000, -501000, -3450001, 7686, 3232, 3276, 3235, 3194, 3244, 3208, 3210, 3237, 3170, 3111, 3134, 3126, -14953, 35045, 90223, -685, 914, -914, -477000, -477000, -3510001, 7775, 3230, 3276, 3235, 3194, 3244, 3208, 3212, 3237, 3170, 3111, 3134, 3126, -14762, 34859, 89853, -838, 914, -838, -333000, -477000, -3390001, 7951, 3230, 3276, 3235, 3194, 3241, 3208, 3212, 3237, 3170, 3111, 3134, 3126, -14762, 34907, 89685, -1524, 762, -685, -525000, -501000, -3450001, 8040, 3230, 3276, 3235, 3194, 3241, 3208, 3212, 3237, 3170, 3111, 3134, 3126, -14726, 34973, 89984, -1067, 762, -838, -333000, -405000, -3390001, 8129, 3230, 3276, 3235, 3191, 3241, 3208, 3212, 3237, 3170, 3110, 3134, 3126, -14738, 34937, 90062, -838, 1067, -914, -213000, -525000, -3630001, 8218, 3230, 3276, 3235, 3191, 3241, 3209, 3212, 3237, 3170, 3110, 3134, 3126, -14630, 34937, 90349, -1371, 685, -685, -429000, -477000, -3570001, 8307, 3230, 3276, 3235, 3191, 3241, 3209, 3212, 3237, 3170, 3110, 3133, 3126, -14816, 34961, 90068, -1143, 1067, -838, -429000, -453000, -3450001, 8396, 3230, 3276, 3227, 3191, 3241, 3209, 3212, 3237, 3170, 3110, 3133, 3126, -14660, 34955, 90062, -1143, 685, -685, -309000, -405000, -3390001, 8567, 3230, 3276, 3227, 3191, 3241, 3209, 3212, 3237, 3170, 3110, 3133, 3126, -15264, 35122, 90074, -1371, 228, -457, -381000, -429000, -3510001, 8656, 3230, 3274, 3227, 3188, 3241, 3209, 3212, 3237, 3170, 3110, 3133, 3126, -14493, 34746, 90421, -1600, 838, -685, -237000, -477000, -3510001, 8745, 3230, 3274, 3227, 3188, 3241, 3204, 3212, 3237, 3170, 3110, 3133, 3126, -14738, 34853, 89745, -1143, 1067, -1067, -549000, -453000, -3450001, 8834, 3225, 3274, 3227, 3188, 3236, 3204, 3212, 3237, 3170, 3110, 3132, 3126, -14786, 34937, 90002, -1448, 381, -533, -429000, -285000, -3570001, 8923, 3225, 3274, 3229, 3188, 3236, 3204, 3212, 3237, 3169, 3110, 3132, 3126, -14600, 34991, 90259, -685, 685, -838, -501000, -429000, -3510001, 9012, 3225, 3274, 3229, 3188, 3236, 3204, 3212, 3237, 3169, 3110, 3132, 3126, -14690, 35039, 90391, -1524, 762, -685, -309000, -381000, -3630001, 9168, 3225, 3281, 3229, 3191, 3236, 3204, 3212, 3238, 3169, 3110, 3132, 3126, -14612, 34782, 90098, -762, 609, -762, -381000, -453000, -3750001, 9257, 3225, 3281, 3229, 3191, 3236, 3210, 3212, 3238, 3169, 3110, 3132, 3126, -14845, 34937, 90038, -1143, 762, -685, -285000, -501000, -3630001, 9346, 3224, 3281, 3229, 3191, 3237, 3210, 3210, 3238, 3169, 3110, 3129, 3126, -14696, 34560, 90325, -1295, 609, -762, -309000, -549000, -3510001, 9435, 3224, 3281, 3229, 3191, 3237, 3210, 3210, 3238, 3168, 3110, 3129, 3126, -14714, 34931, 90014, -1219, 762, -685, -549000, -405000, -3570001, 9524, 3224, 3281, 3229, 3191, 3237, 3210, 3210, 3238, 3168, 3110, 3129, 3126, -14810, 34973, 90265, -990, 914, -838, -261000, -381000, -3570001, 9613, 3224, 3278, 3229, 3190, 3237, 3210, 3210, 3239, 3168, 3110, 3129, 3126, -14714, 34937, 90193, -914, 685, -762, -429000, -453000, -3510001, 9785, 3226, 3278, 3229, 3190, 3237, 3209, 3210, 3239, 3168, 3110, 3129, 3127, -14708, 34770, 90026, -1067, 914, -838, -477000, -405000, -3630001, 9874, 3226, 3278, 3229, 3190, 3238, 3209, 3210, 3239, 3168, 3110, 3129, 3127, -14845, 34877, 89906, -914, 990, -762, -429000, -573000, -3570001, 9963, 3226, 3278, 3230, 3190, 3238, 3209, 3210, 3239, 3168, 3110, 3129, 3127, -14744, 34889, 90014, -1295, 914, -609, -405000, -549000, -3690001, 10052, 3226, 3278, 3230, 3190, 3238, 3209, 3210, 3239, 3168, 3110, 3129, 3127, -14762, 34931, 90116, -1524, 304, -609, -381000, -453000, -3570001, 10141, 3226, 3279, 3230, 3193, 3238, 3209, 3210, 3240, 3168, 3110, 3129, 3127, -14798, 35134, 89823, -1067, 685, -838, -381000, -597000, -3570001, 10230, 3226, 3279, 3230, 3193, 3238, 3205, 3210, 3240, 3168, 3110, 3129, 3127, -14702, 34871, 90493, -1067, 762, -838, -429000, -525000, -3630001, 10404, 3230, 3279, 3230, 3193, 3235, 3205, 3211, 3240, 3168, 3110, 3129, 3127, -14636, 34835, 89906, -1219, 914, -838, -381000, -573000, -3570001, 10493, 3230, 3279, 3233, 3193, 3235, 3205, 3211, 3240, 3170, 3110, 3129, 3127, -14630, 34859, 89823, -1067, 381, -762, -549000, -453000, -3510001, 10582, 3230, 3279, 3233, 3193, 3235, 3205, 3211, 3240, 3170, 3111, 3129, 3127, -14618, 34829, 90086, -685, 762, -914, -405000, -453000, -3510001, 10671, 3230, 3281, 3233, 3193, 3235, 3205, 3211, 3240, 3170, 3111, 3129, 3127, -14618, 35003, 90307, -1067, 990, -990, -453000, -453000, -3570001, 10760, 3230, 3281, 3233, 3193, 3235, 3204, 3211, 3240, 3170, 3111, 3129, 3127, -14582, 34883, 90205, -1371, 838, -685, -405000, -477000, -3390001, 10849, 3226, 3281, 3233, 3193, 3235, 3204, 3212, 3240, 3170, 3111, 3129, 3127, -14929, 34841, 90044, -1219, 457, -762, -285000, -477000, -3510001, 11024, 3226, 3281, 3233, 3193, 3239, 3204, 3212, 3240, 3170, 3111, 3128, 3127, -15073, 34853, 89464, -609, 1143, -990, -237000, -549000, -3510001, 11113, 3226, 3278, 3233, 3194, 3239, 3204, 3212, 3241, 3170, 3112, 3128, 3127, -14451, 34847, 90630, -1600, 457, -609, -285000, -453000, -3570001, 11202, 3226, 3278, 3233, 3194, 3239, 3204, 3212, 3241, 3170, 3112, 3128, 3128, -14845, 34871, 89631, -762, 1524, -1143, -549000, -501000, -3510001, 11291, 3226, 3278, 3233, 3194, 3239, 3206, 3212, 3241, 3170, 3112, 3128, 3128, -14558, 34925, 90050, -1371, 457, -609, -501000, -453000, -3570001, 11380, 3228, 3278, 3233, 3194, 3239, 3206, 3212, 3241, 3170, 3112, 3128, 3128, -14702, 34877, 89978, -609, 1067, -914, -405000, -525000, -3330001, 11469, 3228, 3278, 3233, 3194, 3234, 3206, 3212, 3241, 3170, 3112, 3127, 3128, -14929, 34913, 89948, -1143, 685, -685, -333000, -453000, -3510001, 11629, 3228, 3280, 3228, 3193, 3234, 3206, 3212, 3241, 3170, 3113, 3127, 3128, -14786, 34931, 90008, -914, 914, -914, -357000, -525000, -3570001, 11718, 3228, 3280, 3228, 3193, 3234, 3207, 3212, 3241, 3170, 3113, 3127, 3128, -14666, 34787, 90217, -1219, 457, -685, -381000, -501000, -3630001, 11807, 3228, 3280, 3228, 3193, 3234, 3207, 3212, 3241, 3170, 3113, 3127, 3128, -14911, 34817, 90158, -1067, 838, -838, -477000, -357000, -3630001, 11896, 3226, 3280, 3228, 3193, 3234, 3207, 3212, 3241, 3170, 3113, 3127, 3128, -14893, 34835, 89853, -609, 1219, -1143, -405000, -501000, -3390001, 11985, 3226, 3280, 3228, 3193, 3233, 3207, 3212, 3241, 3170, 3113, 3126, 3128, -15216, 35003, 89649, -914, 838, -838, -429000, -405000, -3450001, 12074, 3226, 3280, 3236, 3193, 3233, 3207, 3212, 3241, 3171, 3113, 3126, 3128, -14493, 34877, 90463, -1295, 762, -685, -477000, -597000, -3690001, 12241, 3226, 3281, 3236, 3194, 3233, 3208, 3212, 3242, 3171, 3113, 3126, 3128, -14827, 35051, 89990, -990, 533, -685, -381000, -501000, -3510001, 12330, 3226, 3281, 3236, 3194, 3233, 3208, 3212, 3242, 3171, 3113, 3126, 3128, -14905, 35278, 90074, -762, 762, -914, -357000, -501000, -3630001, 12419, 3229, 3281, 3236, 3194, 3233, 3208, 3212, 3242, 3171, 3113, 3126, 3128, -14887, 34865, 90325, -914, 1219, -1067, -501000, -501000, -3510001, 12508, 3229, 3281, 3236, 3194, 3232, 3208, 3212, 3242, 3172, 3113, 3126, 3128, -14546, 34536, 90355, -1829, 838, -685, -429000, -405000, -3510001, 12597, 3229, 3280, 3234, 3185, 3232, 3208, 3212, 3243, 3172, 3112, 3126, 3128, -14899, 34764, 89745, -990, 1067, -914, -381000, -429000, -3750001, 12686, 3229, 3280, 3234, 3185, 3232, 3208, 3212, 3243, 3172, 3112, 3126, 3128, -14810, 35081, 89936, -762, 1067, -838, -333000, -549000, -3390001, 12854, 3229, 3280, 3234, 3185, 3232, 3204, 3212, 3243, 3172, 3112, 3126, 3128, -14702, 34799, 90050, -1143, 1448, -990, -357000, -333000, -3630001, 12943, 3229, 3280, 3234, 3185, 3232, 3204, 3212, 3243, 3172, 3112, 3126, 3128, -14941, 34793, 89673, -1067, 838, -914, -405000, -477000, -3450001, 13032, 3229, 3280, 3234, 3185, 3235, 3204, 3212, 3243, 3173, 3112, 3126, 3128, -14672, 34967, 90080, -685, 762, -838, -381000, -573000, -3570001, 13121, 3229, 3277, 3234, 3188, 3235, 3204, 3212, 3243, 3173, 3110, 3126, 3128, -15013, 34829, 90229, -990, 609, -762, -357000, -381000, -3570001, 13210, 3229, 3277, 3234, 3188, 3235, 3204, 3212, 3243, 3173, 3110, 3126, 3128, -14923, 34991, 90630, -1600, 533, -609, -405000, -405000, -3510001, 13299, 3229, 3277, 3234, 3188, 3235, 3203, 3212, 3243, 3173, 3110, 3126, 3128, -14989, 34776, 89775, -1219, 838, -838, -525000, -453000, -3510001, 13457, 3229, 3277, 3234, 3188, 3235, 3203, 3214, 3243, 3173, 3110, 3126, 3128, -14666, 34937, 90367, -1295, 609, -838, -357000, -453000, -3450001, 13546, 3229, 3277, 3234, 3188, 3233, 3203, 3214, 3243, 3173, 3110, 3127, 3128, -14798, 34973, 90205, -1143, 1143, -990, -597000, -501000, -3690001, 13635, 3229, 3278, 3236, 3182, 3233, 3203, 3214, 3243, 3173, 3110, 3127, 3128, -14588, 34841, 90014, -1295, 685, -685, -429000, -477000, -3570001, 13724, 3229, 3278, 3236, 3182, 3233, 3203, 3214, 3243, 3173, 3110, 3127, 3128, -14827, 35063, 90152, -990, 533, -762, -381000, -501000, -3570001, 13813, 3229, 3278, 3236, 3182, 3233, 3206, 3214, 3243, 3173, 3110, 3127, 3128, -14857, 34835, 90247, -990, 685, -838, -381000, -477000, -3450001, 13902, 3224, 3278, 3236, 3182, 3233, 3206, 3215, 3243, 3173, 3110, 3127, 3128, -14612, 34847, 90319, -1143, 914, -762, -405000, -573000, -3450001, 14074, 3224, 3278, 3232, 3182, 3232, 3206, 3215, 3243, 3174, 3110, 3127, 3128, -14768, 34847, 89876, -1067, 762, -762, -477000, -477000, -3570001, 14163, 3224, 3282, 3232, 3184, 3232, 3206, 3215, 3243, 3174, 3110, 3127, 3128, -14875, 34829, 90080, -685, 990, -990, -309000, -429000, -3630001, 14252, 3224, 3282, 3232, 3184, 3232, 3206, 3215, 3243, 3174, 3110, 3127, 3128, -14792, 34937, 89853, -1143, 609, -685, -309000, -405000, -3450001, 14341, 3224, 3282, 3232, 3184, 3232, 3202, 3215, 3243, 3174, 3110, 3127, 3129, -14534, 34823, 90158, -838, 1067, -914, -309000, -477000, -3630001, 14430, 3229, 3282, 3232, 3184, 3232, 3202, 3217, 3243, 3174, 3110, 3127, 3129, -14923, 34704, 90044, -1600, 685, -762, -429000, -429000, -3390001, 14519, 3229, 3282, 3232, 3184, 3235, 3202, 3217, 3243, 3174, 3110, 3126, 3129, -14744, 34985, 90104, -1219, 762, -838, -357000, -429000, -3570001, 14694, 3229, 3280, 3233, 3184, 3235, 3202, 3217, 3244, 3175, 3109, 3126, 3129, -14594, 34680, 90379, -990, 533, -762, -357000, -501000, -3570001, 14783, 3229, 3280, 3233, 3184, 3235, 3203, 3217, 3244, 3175, 3109, 3126, 3130, -14827, 34776, 90056, -1143, 1067, -990, -453000, -405000, -3450001, 14872, 3229, 3280, 3233, 3184, 3235, 3203, 3217, 3244, 3175, 3109, 3126, 3130, -14792, 34955, 90092, -1219, 762, -762, -309000, -477000, -3510001, 14961, 3227, 3280, 3233, 3184, 3235, 3203, 3217, 3244, 3175, 3109, 3126, 3130, -14995, 34985, 89859, -762, 914, -1143, -477000, -429000, -3570001, 15050, 3227, 3280, 3233, 3184, 3234, 3203, 3217, 3244, 3175, 3109, 3126, 3130, -14522, 34674, 90050, -1143, 838, -914, -381000, -405000, -3510001, 15139, 3227, 3281, 3234, 3187, 3234, 3203, 3217, 3245, 3175, 3108, 3126, 3130, -14810, 34787, 90086, -1219, 685, -762, -621000, -597000, -3570001, 15317, 3227, 3281, 3234, 3187, 3234, 3206, 3217, 3245, 3175, 3108, 3126, 3130, -14726, 34823, 90235, -914, 914, -990, -261000, -477000, -3570001, 15406, 3229, 3281, 3234, 3187, 3234, 3206, 3218, 3245, 3175, 3108, 3126, 3130, -14798, 34991, 89799, -1219, 914, -762, -357000, -549000, -3510001, 15495, 3229, 3281, 3234, 3187, 3234, 3206, 3218, 3245, 3175, 3108, 3126, 3130, -14720, 34811, 90062, -990, 838, -762, -237000, -429000, -3450001, 15584, 3229, 3281, 3234, 3187, 3233, 3206, 3218, 3245, 3175, 3108, 3125, 3130, -14833, 34835, 90104, -990, 609, -762, -429000, -597000, -3450001, 15673, 3229, 3280, 3234, 3184, 3233, 3206, 3218, 3245, 3175, 3108, 3125, 3130, -14869, 34829, 90050, -1295, 762, -762, -501000, -453000, -3450001, 15762, 3229, 3280, 3234, 3184, 3233, 3206, 3218, 3245, 3175, 3108, 3125, 3130, -15001, 34823, 90086, -990, 914, -990, -381000, -525000, -3750001, 15916, 3224, 3280, 3234, 3184, 3233, 3209, 3219, 3245, 3175, 3108, 3125, 3130, -14989, 34758, 90056, -990, 838, -838, -405000, -405000, -3450001, 16005, 3225, 3280, 3234, 3184, 3233, 3209, 3219, 3245, 3175, 3108, 3125, 3130, -14863, 34853, 89990, -1295, 762, -762, -357000, -405000, -3450001, 16094, 3225, 3280, 3234, 3184, 3232, 3209, 3219, 3245, 3175, 3108, 3125, 3130, -14666, 34901, 90134, -914, 762, -685, -429000, -477000, -3570001, 16183, 3225, 3286, 3236, 3189, 3232, 3209, 3219, 3247, 3176, 3109, 3125, 3130, -14660, 34746, 90319, -1143, 685, -685, -453000, -453000, -3630001, 16272, 3225, 3286, 3236, 3189, 3232, 3209, 3219, 3247, 3176, 3109, 3125, 3130, -14720, 34740, 90104, -990, 838, -838, -333000, -405000, -3510001, 16361, 3225, 3286, 3236, 3189, 3232, 3203, 3219, 3247, 3176, 3109, 3125, 3131, -14827, 34716, 89942, -1143, 762, -914, -405000, -597000, -3690001, 16528, 3228, 3286, 3236, 3189, 3232, 3203, 3220, 3247, 3176, 3109, 3125, 3131, -14905, 34841, 90379, -1295, 685, -762, -333000, -453000, -3510001, 16617, 3228, 3282, 3236, 3183, 3227, 3203, 3220, 3247, 3176, 3110, 3125, 3131, -14917, 34853, 89984, -1219, 762, -762, -381000, -501000, -3630001, 16706, 3228, 3282, 3238, 3183, 3227, 3203, 3220, 3247, 3177, 3110, 3125, 3131, -14774, 34871, 89859, -838, 838, -838, -309000, -453000, -3450001, 16795, 3228, 3282, 3238, 3183, 3227, 3203, 3220, 3247, 3177, 3110, 3125, 3131, -14684, 34835, 90164, -914, 838, -914, -333000, -453000, -3630001, 16884, 3228, 3282, 3238, 3183, 3227, 3209, 3220, 3247, 3177, 3110, 3125, 3132, -15019, 34985, 90068, -1143, 762, -762, -429000, -477000, -3570001, 16973, 3231, 3282, 3238, 3183, 3227, 3209, 3221, 3247, 3177, 3110, 3125, 3132, -14863, 35033, 89942, -1295, 685, -762, -309000, -453000, -3450001, 17144, 3231, 3281, 3238, 3184, 3234, 3209, 3221, 3248, 3177, 3110, 3125, 3132, -14827, 34787, 89960, -2362, 76, -381, -381000, -309000, -3390001, 17233, 3231, 3281, 3237, 3184, 3234, 3209, 3221, 3248, 3178, 3110, 3125, 3132, -14612, 34853, 90511, -1905, 457, -533, -381000, -525000, -3630001, 17322, 3231, 3281, 3237, 3184, 3234, 3202, 3221, 3248, 3178, 3110, 3125, 3132, -14792, 34889, 89769, -1295, 609, -685, -309000, -573000, -3450001, 17411, 3231, 3281, 3237, 3184, 3234, 3202, 3221, 3248, 3178, 3110, 3125, 3132, -14720, 34734, 90421, -1295, 685, -685, -453000, -357000, -3450001, 17500, 3229, 3281, 3237, 3184, 3234, 3202, 3222, 3248, 3178, 3110, 3125, 3132, -14451, 34841, 90128, -609, 1219, -1067, -189000, -453000, -3330001, 17589, 3229, 3281, 3237, 3184, 3234, 3202, 3222, 3248, 3178, 3110, 3125, 3132, -14845, 34656, 90044, -1524, 457, -457, -213000, -501000, -3390001, 17761, 3229, 3284, 3237, 3192, 3232, 3202, 3222, 3248, 3178, 3110, 3126, 3132, -15174, 34913, 89853, -762, 990, -914, -357000, -453000, -3630001, 17850, 3229, 3284, 3237, 3192, 3232, 3205, 3222, 3248, 3178, 3110, 3126, 3133, -14648, 34847, 89900, -685, 1143, -1067, -453000, -573000, -3390001, 17939, 3229, 3284, 3237, 3192, 3232, 3205, 3222, 3248, 3178, 3110, 3126, 3133, -14947, 34823, 89924, -1448, 609, -762, -381000, -477000, -3570001, 18028, 3228, 3284, 3237, 3192, 3232, 3205, 3223, 3248, 3178, 3110, 3126, 3133, -14726, 34859, 90337, -1371, 533, -762, -357000, -501000, -3510001, 18117, 3228, 3279, 3237, 3192, 3232, 3205, 3223, 3249, 3178, 3110, 3126, 3133, -15138, 34925, 89918, -914, 838, -838, -453000, -357000, -3450001, 18206, 3228, 3279, 3237, 3188, 3234, 3205, 3223, 3249, 3178, 3112, 3126, 3133, -14792, 34991, 90337, -990, 838, -762, -381000, -453000, -3510001, 18365, 3228, 3279, 3238, 3188, 3234, 3204, 3223, 3249, 3179, 3112, 3126, 3133, -14654, 34991, 89984, -1143, 762, -685, -405000, -309000, -3450001, 18454, 3228, 3279, 3238, 3188, 3234, 3204, 3223, 3249, 3179, 3112, 3126, 3133, -14899, 35027, 89721, -762, 914, -762, -285000, -501000, -3570001, 18543, 3230, 3279, 3238, 3188, 3234, 3204, 3225, 3249, 3179, 3112, 3126, 3133, -14684, 34877, 90032, -1371, 685, -609, -453000, -477000, -3450001, 18632, 3230, 3285, 3238, 3194, 3234, 3204, 3225, 3250, 3179, 3113, 3126, 3133, -14887, 35063, 90188, -1676, 685, -685, -285000, -429000, -3630001, 18721, 3230, 3285, 3238, 3194, 3232, 3204, 3225, 3250, 3179, 3113, 3126, 3133, -14816, 34877, 89942, -1067, 762, -838, -405000, -525000, -3630001, 18810, 3230, 3285, 3238, 3194, 3232, 3204, 3225, 3250, 3180, 3113, 3126, 3133, -14708, 34811, 90074, -685, 990, -914, -477000, -549000, -3570001, 18985, 3228, 3285, 3238, 3194, 3232, 3208, 3225, 3250, 3180, 3113, 3126, 3133, -15025, 34829, 90086, -1219, 838, -762, -501000, -573000, -3630001, 19074, 3228, 3285, 3238, 3194, 3232, 3208, 3225, 3250, 3180, 3113, 3126, 3133, -14863, 35075, 89715, -914, 1067, -990, -405000, -549000, -3630001, 19163, 3228, 3285, 3238, 3195, 3232, 3208, 3225, 3250, 3180, 3113, 3126, 3133, -14792, 34793, 90457, -1143, 838, -838, -381000, -525000, -3630001, 19252, 3228, 3285, 3238, 3195, 3231, 3208, 3225, 3250, 3180, 3113, 3126, 3133, -14696, 34728, 90325, -1219, 914, -914, -141000, -477000, -3510001, 19341, 3228, 3285, 3234, 3195, 3231, 3208, 3225, 3250, 3180, 3113, 3126, 3134, -14887, 34865, 89679, -1143, 685, -762, -309000, -525000, -3570001, 19430, 3228, 3285, 3234, 3195, 3231, 3206, 3225, 3250, 3180, 3113, 3126, 3134, -14965, 34985, 90038, -1219, 533, -685, -357000, -477000, -3630001, 19604, 3230, 3285, 3234, 3195, 3231, 3206, 3226, 3250, 3180, 3113, 3126, 3134, -14947, 34782, 90020, -1219, 914, -838, -261000, -477000, -3570001, 19693, 3230, 3284, 3234, 3190, 3235, 3206, 3226, 3251, 3180, 3114, 3126, 3134, -14863, 34883, 90014, -990, 838, -914, -333000, -501000, -3510001, 19782, 3230, 3284, 3235, 3190, 3235, 3206, 3226, 3251, 3180, 3114, 3126, 3134, -14995, 34883, 89625, -457, 1143, -1067, -525000, -429000, -3570001, 19871, 3230, 3284, 3235, 3190, 3235, 3213, 3226, 3251, 3180, 3114, 3126, 3135, -14905, 34716, 89924, -838, 990, -914, -309000, -573000, -3450001, 19960, 3230, 3284, 3235, 3190, 3235, 3213, 3226, 3251, 3180, 3114, 3126, 3135, -14696, 34847, 90223, -1067, 685, -838, -357000, -525000, -3450001, 20049, 3233, 3284, 3235, 3190, 3235, 3213, 3227, 3251, 3180, 3114, 3126, 3135, -14576, 34829, 89978, -1143, 838, -838, -429000, -525000, -3630001, 20216, 3233, 3283, 3235, 3193, 3234, 3213, 3227, 3252, 3180, 3115, 3126, 3135, -14774, 34883, 89948, -762, 914, -990, -525000, -549000, -3450001, 20305, 3233, 3283, 3240, 3193, 3234, 3213, 3227, 3252, 3181, 3115, 3126, 3135, -14744, 34656, 89936, -609, 1219, -990, -501000, -525000, -3510001, 20394, 3233, 3283, 3240, 3193, 3234, 3208, 3227, 3252, 3181, 3115, 3126, 3135, -14977, 34758, 89906, -1295, 609, -685, -549000, -525000, -3630001, 20483, 3233, 3283, 3240, 3193, 3234, 3208, 3227, 3252, 3181, 3115, 3126, 3135, -14618, 34782, 90391, -1524, 381, -381, -453000, -573000, -3450001, 20572, 3231, 3283, 3240, 3193, 3234, 3208, 3228, 3252, 3181, 3115, 3126, 3135, -14618, 34764, 89894, -1067, 838, -762, -429000, -501000, -3390001, 20661, 3231, 3289, 3240, 3191, 3234, 3208, 3228, 3253, 3181, 3116, 3126, 3135, -14792, 34907, 89793, -838, 762, -838, -381000, -405000, -3570001, 20816, 3231, 3289, 3239, 3191, 3234, 3208, 3228, 3253, 3182, 3116, 3127, 3135, -14570, 34883, 89619, -533, 1448, -990, -477000, -525000, -3690001, 20905, 3231, 3289, 3239, 3191, 3234, 3209, 3228, 3253, 3182, 3116, 3127, 3135, -14636, 34626, 90630, -1219, 381, -609, -285000, -477000, -3450001, 20994, 3231, 3289, 3239, 3191, 3234, 3209, 3228, 3253, 3182, 3116, 3127, 3135, -14648, 34865, 89757, -381, 1676, -914, -429000, -477000, -3510001, 21083, 3229, 3289, 3239, 3191, 3234, 3209, 3229, 3253, 3182, 3116, 3127, 3135, -15138, 34799, 89924, -1143, 381, -762, -525000, -405000, -3510001, 21172, 3229, 3285, 3239, 3194, 3234, 3209, 3229, 3253, 3182, 3116, 3127, 3135, -14409, 34764, 90678, -1448, 533, -609, -405000, -405000, -3570001, 21261, 3229, 3285, 3239, 3194, 3231, 3209, 3229, 3253, 3182, 3116, 3127, 3135, -15043, 34835, 90068, -1295, 838, -762, -381000, -429000, -3510001, 21433, 3229, 3285, 3239, 3194, 3231, 3211, 3229, 3253, 3183, 3116, 3127, 3136, -14708, 34925, 89715, -533, 1143, -914, -381000, -429000, -3450001, 21522, 3229, 3285, 3239, 3194, 3231, 3211, 3229, 3253, 3183, 3116, 3127, 3136, -14612, 34865, 90439, -1295, 457, -609, -357000, -525000, -3630001, 21611, 3232, 3285, 3239, 3194, 3231, 3211, 3230, 3253, 3183, 3116, 3127, 3136, -14271, 34704, 90511, -304, 990, -914, -477000, -501000, -3570001, 21700, 3232, 3288, 3239, 3191, 3231, 3211, 3230, 3254, 3183, 3116, 3127, 3136, -14953, 34943, 90205, -457, 838, -914, -357000, -453000, -3390001, 21789, 3232, 3288, 3239, 3191, 3237, 3211, 3230, 3254, 3183, 3116, 3128, 3136, -14827, 34907, 90032, -609, 838, -762, -309000, -405000, -3510001, 21878, 3232, 3288, 3240, 3191, 3237, 3211, 3230, 3254, 3183, 3116, 3128, 3136, -14971, 34901, 89667, 0, 1905, -1524, -453000, -477000, -3450001, 22051, 3232, 3288, 3240, 3191, 3237, 3210, 3230, 3254, 3183, 3116, 3128, 3136, -14869, 34865, 90534, -2057, -76, -228, -381000, -525000, -3510001, 22140, 3232, 3292, 3240, 3191, 3237, 3210, 3230, 3255, 3183, 3116, 3128, 3136, -14959, 34883, 90397, -1600, 304, -381, -381000, -501000, -3570001, 22229, 3232, 3292, 3240, 3192, 3237, 3210, 3230, 3255, 3183, 3117, 3128, 3136, -14498, 34728, 90828, -1981, 381, -457, -357000, -405000, -3690001, 22318, 3232, 3292, 3240, 3192, 3235, 3210, 3230, 3255, 3183, 3117, 3129, 3136, -14726, 34710, 90223, -1143, 1219, -990, -237000, -429000, -3450001, 22407, 3232, 3292, 3240, 3192, 3235, 3214, 3230, 3255, 3183, 3117, 3129, 3137, -15001, 34793, 89571, -990, 1143, -990, -261000, -429000, -3570001, 22496, 3232, 3292, 3240, 3192, 3235, 3214, 3230, 3255, 3183, 3117, 3129, 3137, -15133, 34548, 90038, -1143, 609, -838, -453000, -477000, -3570001, 22656, 3233, 3287, 3240, 3191, 3235, 3214, 3232, 3256, 3183, 3117, 3129, 3137, -14750, 34740, 89918, -1295, 990, -685, -453000, -621000, -3630001, 22745, 3233, 3287, 3240, 3191, 3235, 3214, 3232, 3256, 3183, 3117, 3129, 3137, -14941, 34985, 89799, -1600, 533, -609, -429000, -453000, -3450001, 22834, 3233, 3287, 3240, 3191, 3232, 3214, 3232, 3256, 3183, 3117, 3129, 3137, -14690, 34680, 90158, -762, 914, -1067, -285000, -477000, -3570001, 22923, 3233, 3287, 3242, 3191, 3232, 3213, 3232, 3256, 3183, 3117, 3129, 3138, -14959, 34566, 89769, -838, 990, -762, -549000, -645000, -3570001, 23012, 3233, 3287, 3242, 3191, 3232, 3213, 3232, 3256, 3183, 3117, 3129, 3138, -14953, 34740, 89781, -1295, 762, -533, -525000, -597000, -3510001, 23101, 3236, 3287, 3242, 3191, 3232, 3213, 3232, 3256, 3183, 3117, 3129, 3138, -15127, 34734, 90098, -1067, 838, -914, -477000, -381000, -3630001, 23279, 3236, 3288, 3242, 3186, 3232, 3213, 3232, 3256, 3183, 3116, 3129, 3138, -14935, 35057, 89571, -685, 838, -838, -237000, -501000, -3450001, 23368, 3236, 3288, 3242, 3186, 3238, 3213, 3232, 3256, 3183, 3116, 3129, 3138, -14953, 35015, 90337, -533, 685, -762, -453000, -549000, -3570001, 23457, 3236, 3288, 3240, 3186, 3238, 3207, 3232, 3256, 3184, 3116, 3129, 3138, -15049, 34728, 90307, -1067, 1067, -914, -381000, -477000, -3510001, 23546, 3236, 3288, 3240, 3186, 3238, 3207, 3232, 3256, 3184, 3116, 3129, 3138, -14744, 34710, 89990, -1600, 838, -685, -477000, -453000, -3510001, 23635, 3230, 3288, 3240, 3186, 3238, 3207, 3232, 3256, 3184, 3116, 3129, 3138, -15115, 34817, 89661, -1295, 609, -838, -285000, -453000, -3390001, 23724, 3230, 3288, 3240, 3189, 3238, 3207, 3232, 3256, 3184, 3116, 3129, 3138, -15240, 34925, 89805, -762, 685, -838, -261000, -429000, -3570001, 23891, 3230, 3288, 3240, 3189, 3231, 3207, 3232, 3256, 3184, 3116, 3129, 3138, -14684, 34758, 90193, -1829, 990, -838, -405000, -453000, -3570001, 23980, 3230, 3288, 3241, 3189, 3231, 3208, 3232, 3256, 3185, 3116, 3129, 3138, -14899, 34925, 89727, -914, 685, -838, -381000, -501000, -3450001, 24069, 3230, 3288, 3241, 3189, 3231, 3208, 3232, 3256, 3185, 3116, 3129, 3138, -15121, 34925, 89900, -533, 914, -914, -453000, -405000, -3570001, 24158, 3230, 3285, 3241, 3190, 3231, 3208, 3233, 3256, 3185, 3116, 3129, 3138, -14881, 34907, 90140, -685, 1143, -914, -429000, -381000, -3570001, 24247, 3230, 3285, 3241, 3190, 3231, 3208, 3233, 3256, 3185, 3116, 3129, 3138, -14720, 34566, 90152, -1600, 838, -762, -453000, -405000, -3570001, 24336, 3230, 3285, 3241, 3190, 3231, 3208, 3233, 3256, 3185, 3116, 3129, 3138, -14666, 34704, 90301, -2591, 76, -304, -501000, -405000, -3450001, 24503, 3230, 3285, 3238, 3190, 3236, 3206, 3233, 3256, 3185, 3116, 3128, 3138, -14642, 34153, 90223, -1448, 609, -685, -333000, -549000, -3450001, 24592, 3230, 3285, 3238, 3190, 3236, 3206, 3233, 3256, 3185, 3116, 3128, 3138, -14869, 34710, 89942, -1600, 838, -762, -405000, -405000, -3510001, 24681, 3231, 3284, 3238, 3192, 3236, 3206, 3232, 3256, 3185, 3116, 3128, 3138, -15276, 35278, 89027, -914, 990, -1143, -165000, -453000, -3750001, 24770, 3231, 3284, 3238, 3192, 3236, 3206, 3232, 3256, 3185, 3116, 3128, 3138, -14887, 34889, 89966, 0, 1295, -1143, -477000, -453000, -3750001, 24859, 3231, 3284, 3238, 3192, 3236, 3206, 3232, 3256, 3185, 3116, 3127, 3138, -14750, 34692, 90618, -838, 1067, -990, -501000, -525000, -3390001, 24948, 3231, 3284, 3238, 3192, 3235, 3207, 3232, 3256, 3185, 3116, 3127, 3138, -14857, 34345, 89721, -1524, 914, -685, -429000, -429000, -3450001, 25105, 3231, 3284, 3237, 3192, 3235, 3207, 3232, 3256, 3184, 3116, 3127, 3138, -14804, 34740, 90445, -685, 685, -990, -357000, -381000, -3690001, 25194, 3231, 3290, 3237, 3190, 3235, 3207, 3231, 3256, 3184, 3117, 3127, 3138, -14253, 34799, 90792, -1143, 838, -838, -309000, -453000, -3750001, 25283, 3231, 3290, 3237, 3190, 3235, 3207, 3231, 3256, 3184, 3117, 3127, 3138, -15192, 34961, 89918, -1676, 609, -685, -261000, -429000, -3390001, 25372, 3231, 3290, 3237, 3190, 3235, 3207, 3231, 3256, 3184, 3117, 3127, 3138, -14768, 34949, 89876, -609, 609, -838, -429000, -381000, -3630001, 25461, 3231, 3290, 3237, 3190, 3232, 3209, 3231, 3256, 3184, 3117, 3126, 3138, -14899, 34453, 90182, -838, 914, -1067, -429000, -405000, -3450001, 25550, 3231, 3290, 3239, 3190, 3232, 3209, 3231, 3256, 3184, 3117, 3126, 3138, -14816, 34560, 90152, -1753, 457, -685, -477000, -429000, -3630001, 25722, 3231, 3287, 3239, 3192, 3232, 3209, 3231, 3256, 3184, 3118, 3126, 3138, -14732, 34704, 90050, -914, 609, -685, -477000, -429000, -3630001, 25811, 3231, 3287, 3239, 3192, 3232, 3209, 3231, 3256, 3184, 3118, 3126, 3138, -14409, 34650, 90146, -1143, 1143, -838, -357000, -477000, -3630001, 25900, 3231, 3287, 3239, 3192, 3231, 3209, 3231, 3256, 3184, 3118, 3126, 3138, -14965, 34686, 89900, -1753, 609, -609, -429000, -429000, -3510001, 25989, 3231, 3287, 3239, 3192, 3231, 3210, 3231, 3256, 3184, 3118, 3126, 3138, -14977, 34967, 89859, -1143, 685, -838, -453000, -453000, -3330001, 26078, 3231, 3287, 3240, 3192, 3231, 3210, 3231, 3256, 3185, 3118, 3126, 3138, -14911, 34949, 90170, -838, 381, -762, -309000, -477000, -3510001, 26167, 3233, 3283, 3240, 3190, 3231, 3210, 3232, 3256, 3185, 3118, 3126, 3138, -14612, 34716, 90457, -1143, 990, -838, -357000, -477000, -3690001, 26341, 3233, 3283, 3240, 3190, 3231, 3210, 3232, 3256, 3185, 3118, 3126, 3138, -15055, 34799, 89942, -1143, 838, -762, -381000, -573000, -3570001, 26430, 3233, 3283, 3240, 3190, 3233, 3210, 3232, 3256, 3185, 3118, 3127, 3138, -15037, 34949, 89655, -838, 685, -838, -405000, -429000, -3570001, 26519, 3233, 3283, 3240, 3190, 3233, 3209, 3232, 3256, 3186, 3118, 3127, 3138, -15138, 35128, 89619, -762, 838, -990, -213000, -453000, -3630001, 26608, 3233, 3283, 3238, 3190, 3233, 3209, 3232, 3256, 3186, 3118, 3127, 3138, -14816, 34764, 90164, -1676, 685, -685, -405000, -549000, -3510001, 26697, 3232, 3286, 3238, 3188, 3233, 3209, 3232, 3256, 3186, 3117, 3127, 3138, -15049, 34853, 90170, -1295, 990, -838, -405000, -453000, -3510001, 26786, 3232, 3286, 3238, 3188, 3233, 3209, 3232, 3256, 3186, 3117, 3127, 3138, -14953, 34668, 89876, -1829, 304, -381, -405000, -453000, -3630001, 26961, 3232, 3286, 3238, 3188, 3230, 3209, 3232, 3256, 3186, 3117, 3127, 3138, -14911, 34865, 90050, -990, 838, -762, -453000, -285000, -3630001, 27050, 3232, 3286, 3240, 3188, 3230, 3207, 3232, 3256, 3186, 3117, 3127, 3139, -14923, 34752, 90158, -1371, 762, -914, -309000, -573000, -3510001, 27139, 3232, 3286, 3240, 3188, 3230, 3207, 3232, 3256, 3186, 3117, 3127, 3139, -15121, 34883, 89996, -1295, 838, -762, -477000, -501000, -3570001, 27228, 3231, 3286, 3240, 3188, 3230, 3207, 3233, 3256, 3186, 3116, 3127, 3139, -14935, 34746, 90391, -990, 685, -838, -237000, -525000, -3570001, 27317, 3231, 3286, 3240, 3188, 3230, 3207, 3233, 3256, 3186, 3116, 3127, 3139, -14630, 34704, 90271, -990, 914, -838, -333000, -357000, -3690001, 27406, 3231, 3286, 3240, 3188, 3230, 3207, 3233, 3256, 3186, 3116, 3127, 3139, -14708, 34811, 90152, -1143, 838, -685, -405000, -525000, -3450001, 27564, 3231, 3286, 3238, 3188, 3233, 3211, 3233, 3256, 3186, 3116, 3127, 3140, -14911, 34835, 90170, -914, 914, -838, -357000, -501000, -3450001, 27653, 3231, 3287, 3238, 3188, 3233, 3211, 3233, 3257, 3186, 3116, 3127, 3140, -14839, 34704, 90014, -1371, 762, -609, -333000, -621000, -3510001, 27742, 3236, 3287, 3238, 3185, 3233, 3211, 3234, 3257, 3186, 3116, 3127, 3140, -14959, 34943, 89601, -990, 990, -914, -381000, -453000, -3510001, 27831, 3236, 3287, 3238, 3185, 3233, 3211, 3234, 3257, 3186, 3116, 3127, 3140, -14977, 34805, 90140, -990, 685, -762, -237000, -501000, -3390001, 27920, 3236, 3287, 3238, 3185, 3233, 3211, 3234, 3257, 3186, 3116, 3127, 3140, -14732, 34746, 90116, -762, 990, -914, -357000, -405000, -3690001, 28009, 3236, 3287, 3238, 3185, 3232, 3211, 3234, 3257, 3186, 3116, 3128, 3140, -14774, 34859, 89924, -1067, 838, -762, -381000, -357000, -3510001, 28176, 3236, 3286, 3240, 3185, 3232, 3211, 3234, 3258, 3186, 3116, 3128, 3140, -14708, 34530, 90217, -1371, 838, -762, -261000, -429000, -3510001, 28265, 3232, 3286, 3240, 3187, 3232, 3211, 3235, 3258, 3186, 3116, 3128, 3140, -15204, 34465, 89739, -1143, 838, -990, -357000, -429000, -3570001, 28354, 3232, 3286, 3240, 3187, 3232, 3211, 3235, 3258, 3186, 3116, 3128, 3140, -14768, 34925, 89960, -1067, 762, -685, -309000, -477000, -3510001, 28443, 3232, 3286, 3240, 3187, 3232, 3211, 3235, 3258, 3186, 3116, 3128, 3140, -14498, 34698, 89847, -685, 990, -914, -477000, -405000, -3570001, 28532, 3232, 3286, 3240, 3187, 3235, 3210, 3235, 3258, 3186, 3116, 3128, 3140, -14744, 34841, 90247, -1448, 304, -609, -285000, -573000, -3390001, 28621, 3232, 3286, 3237, 3187, 3235, 3210, 3235, 3258, 3187, 3116, 3128, 3140, -14941, 34734, 89835, -1143, 914, -838, -357000, -429000, -3450001, 28791, 3234, 3289, 3237, 3187, 3235, 3210, 3235, 3258, 3187, 3116, 3128, 3140, -14851, 34656, 90104, -1143, 685, -838, -477000, -429000, -3390001, 28880, 3234, 3289, 3237, 3187, 3235, 3210, 3235, 3258, 3187, 3116, 3128, 3140, -14959, 34728, 90056, -914, 914, -838, -429000, -453000, -3570001, 28969, 3234, 3289, 3237, 3187, 3235, 3210, 3235, 3258, 3187, 3116, 3128, 3140, -15121, 34686, 89601, -838, 838, -914, -405000, -405000, -3630001, 29058, 3234, 3289, 3237, 3187, 3233, 3206, 3235, 3258, 3187, 3116, 3128, 3140, -15097, 34704, 89870, -1219, 990, -838, -429000, -501000, -3570001, 29147, 3234, 3289, 3240, 3187, 3233, 3206, 3235, 3258, 3187, 3116, 3128, 3140, -15121, 34554, 89589, -1219, 685, -914, -525000, -549000, -3450001, 29236, 3229, 3287, 3240, 3187, 3233, 3206, 3235, 3258, 3187, 3116, 3128, 3140, -15013, 34572, 89912, -990, 685, -762, -237000, -453000, -3750001, 29393, 3229, 3287, 3240, 3187, 3233, 3206, 3235, 3258, 3187, 3116, 3128, 3140, -14546, 34596, 90164, -1295, 762, -533, -381000, -477000, -3630001, 29482, 3229, 3287, 3240, 3187, 3233, 3206, 3235, 3258, 3187, 3116, 3128, 3140, -14947, 34758, 90116, -1295, 609, -685, -189000, -501000, -3390001, 29571, 3229, 3287, 3240, 3187, 3230, 3205, 3235, 3258, 3187, 3116, 3129, 3140, -14821, 34734, 90104, -838, 685, -762, -333000, -381000, -3570001, 29660, 3229, 3290, 3238, 3187, 3230, 3205, 3235, 3258, 3187, 3116, 3129, 3140, -14804, 34704, 90241, -990, 838, -838, -237000, -477000, -3390001, 29749, 3233, 3290, 3238, 3184, 3230, 3205, 3236, 3258, 3187, 3116, 3129, 3140, -14911, 34590, 90110, -1219, 762, -762, -405000, -525000, -3510001, 29838, 3233, 3290, 3238, 3184, 3230, 3205, 3236, 3258, 3187, 3116, 3129, 3140, -14959, 34584, 89900, -1143, 838, -838, -381000, -549000, -3570001, 30011, 3233, 3290, 3238, 3184, 3230, 3205, 3236, 3258, 3187, 3116, 3129, 3140, -15115, 34913, 89936, -762, 1067, -990, -381000, -501000, -3510001, 30100, 3233, 3290, 3238, 3184, 3234, 3207, 3236, 3258, 3187, 3116, 3129, 3140, -14522, 34626, 89685, -1067, 762, -685, -237000, -477000, -3510001, 30189, 3233, 3292, 3243, 3184, 3234, 3207, 3236, 3258, 3188, 3116, 3129, 3140, -14792, 34704, 90170, -914, 1143, -1067, -237000, -429000, -3510001, 30278, 3234, 3292, 3243, 3184, 3234, 3207, 3237, 3258, 3188, 3116, 3129, 3140, -15031, 34758, 89900, -1219, 685, -762, -405000, -525000, -3630001, 30367, 3234, 3292, 3243, 3184, 3234, 3207, 3237, 3258, 3188, 3116, 3129, 3140, -15049, 34728, 89757, -762, 990, -990, -357000, -429000, -3510001, 30456, 3234, 3292, 3243, 3184, 3234, 3207, 3237, 3258, 3188, 3116, 3129, 3140, -14821, 34500, 90086, -1219, 914, -838, -261000, -525000, -3390001, 30631, 3234, 3292, 3243, 3184, 3233, 3210, 3237, 3258, 3188, 3116, 3129, 3140, -14935, 34566, 89912, -990, 838, -914, -453000, -381000, -3690001, 30720, 3234, 3287, 3238, 3184, 3233, 3210, 3237, 3258, 3188, 3116, 3129, 3140, -14774, 34811, 90026, -1143, 838, -762, -357000, -549000, -3450001, 30809, 3232, 3287, 3238, 3184, 3233, 3210, 3237, 3258, 3188, 3116, 3129, 3140, -14821, 34692, 89918, -1067, 762, -838, -213000, -429000, -3570001, 30898, 3232, 3287, 3238, 3184, 3233, 3210, 3237, 3258, 3188, 3116, 3129, 3140, -14935, 34805, 89876, -1295, 609, -762, -477000, -525000, -3450001, 30987, 3232, 3287, 3238, 3184, 3233, 3210, 3237, 3258, 3188, 3116, 3129, 3140, -14983, 34722, 90098, -1067, 762, -762, -357000, -501000, -3570001, 31076, 3232, 3287, 3238, 3184, 3230, 3209, 3237, 3258, 3188, 3116, 3129, 3141, -14792, 34668, 90289, -1219, 609, -533, -333000, -357000, -3630001, 31252, 3232, 3284, 3239, 3186, 3230, 3209, 3238, 3258, 3188, 3117, 3129, 3141, -15097, 34542, 89972, -1143, 838, -685, -333000, -477000, -3510001, 31341, 3233, 3284, 3239, 3186, 3230, 3209, 3238, 3258, 3188, 3117, 3129, 3141, -15007, 34716, 89960, -990, 533, -838, -285000, -621000, -3690001, 31430, 3233, 3284, 3239, 3186, 3230, 3209, 3238, 3258, 3188, 3117, 3129, 3141, -14983, 34883, 90080, -990, 990, -838, -357000, -477000, -3570001, 31519, 3233, 3284, 3239, 3186, 3230, 3209, 3238, 3258, 3188, 3117, 3129, 3141, -14833, 34817, 90098, -1143, 685, -762, -477000, -453000, -3630001, 31608, 3233, 3284, 3239, 3186, 3232, 3203, 3238, 3258, 3188, 3117, 3129, 3140, -14851, 34710, 90122, -1219, 838, -762, -357000, -405000, -3570001, 31697, 3233, 3289, 3239, 3185, 3232, 3203, 3238, 3258, 3188, 3118, 3129, 3140, -15037, 34692, 90122, -990, 685, -762, -549000, -549000, -3510001, 31851, 3227, 3289, 3240, 3185, 3232, 3203, 3238, 3258, 3188, 3118, 3129, 3140, -14953, 34530, 89966, -1448, 914, -838, -261000, -429000, -3570001, 31940, 3227, 3289, 3240, 3185, 3232, 3203, 3238, 3258, 3188, 3118, 3129, 3140, -14839, 34829, 89536, -1143, -76, -457, -285000, -453000, -3510001, 32029, 3227, 3289, 3240, 3185, 3232, 3203, 3238, 3258, 3188, 3118, 3129, 3140, -15438, 34805, 90289, -381, 1067, -1219, -453000, -453000, -3750001, 32118, 3227, 3289, 3240, 3185, 3229, 3209, 3238, 3258, 3188, 3118, 3129, 3140, -14887, 34734, 89859, -685, 1067, -914, -261000, -429000, -3690001, 32207, 3227, 3283, 3240, 3189, 3229, 3209, 3238, 3258, 3188, 3118, 3129, 3140, -14917, 34518, 90247, -1753, 609, -685, -405000, -525000, -3510001, 32296, 3231, 3283, 3239, 3189, 3229, 3209, 3237, 3258, 3188, 3118, 3129, 3140, -14786, 34740, 89775, -1371, 990, -838, -213000, -453000, -3570001, 32463, 3231, 3283, 3239, 3189, 3229, 3209, 3237, 3258, 3188, 3118, 3129, 3140, -14678, 34764, 90564, -1143, 609, -762, -285000, -453000, -3510001, 32552, 3231, 3283, 3239, 3189, 3229, 3209, 3237, 3258, 3188, 3118, 3129, 3140, -14887, 34895, 90337, -1295, 1143, -762, -309000, -357000, -3570001, 32641, 3231, 3283, 3239, 3189, 3232, 3204, 3237, 3258, 3188, 3118, 3129, 3141, -14929, 34554, 90074, -1448, 914, -762, -309000, -405000, -3690001, 32730, 3231, 3285, 3239, 3187, 3232, 3204, 3237, 3258, 3188, 3119, 3129, 3141, -14821, 34578, 90020, -1295, 990, -914, -285000, -405000, -3510001, 32819, 3229, 3285, 3242, 3187, 3232, 3204, 3237, 3258, 3188, 3119, 3129, 3141, -14899, 34674, 89643, -990, 914, -914, -429000, -429000, -3450001, 32908, 3229, 3285, 3242, 3187, 3232, 3204, 3237, 3258, 3188, 3119, 3129, 3141, -15085, 34907, 90301, -762, 533, -762, -357000, -405000, -3510001, 33080, 3229, 3285, 3242, 3187, 3232, 3203, 3237, 3258, 3188, 3119, 3129, 3141, -14833, 34518, 89853, -1600, 1219, -838, -477000, -453000, -3570001, 33169, 3229, 3292, 3242, 3187, 3229, 3203, 3237, 3259, 3188, 3119, 3129, 3141, -14816, 34883, 89894, -914, 685, -838, -333000, -357000, -3630001, 33258, 3229, 3292, 3242, 3188, 3229, 3203, 3237, 3259, 3188, 3119, 3129, 3141, -15210, 34919, 89990, -990, 533, -762, -477000, -405000, -3690001, 33347, 3230, 3292, 3238, 3188, 3229, 3203, 3237, 3259, 3188, 3119, 3129, 3141, -15252, 34758, 90247, -1067, 762, -838, -357000, -477000, -3750001, 33436, 3230, 3292, 3238, 3188, 3229, 3203, 3237, 3259, 3188, 3119, 3129, 3141, -14965, 34644, 90152, -1295, 1067, -914, -405000, -333000, -3510001, 33525, 3230, 3292, 3238, 3188, 3229, 3203, 3237, 3259, 3188, 3119, 3129, 3141, -14941, 34674, 89853, -1143, 838, -838, -213000, -501000, -3630001, 33697, 3230, 3288, 3238, 3188, 3233, 3207, 3237, 3259, 3188, 3119, 3129, 3141, -14983, 35021, 89703, -990, 685, -762, -429000, -453000, -3570001, 33786, 3230, 3288, 3238, 3191, 3233, 3207, 3237, 3259, 3189, 3119, 3129, 3141, -14989, 34704, 89847, -1067, 914, -838, -381000, -501000, -3510001, 33875, 3229, 3288, 3245, 3191, 3233, 3207, 3237, 3259, 3189, 3119, 3129, 3141, -14893, 34770, 90146, -1143, 685, -762, -261000, -429000, -3570001, 33964, 3229, 3288, 3245, 3191, 3233, 3207, 3237, 3259, 3189, 3119, 3129, 3141, -14732, 34548, 89667, -762, 1143, -914, -333000, -309000, -3510001, 34053, 3229, 3288, 3245, 3191, 3233, 3207, 3237, 3259, 3189, 3119, 3129, 3141, -14893, 34638, 90140, -1448, 457, -609, -309000, -501000, -3690001, 34142, 3229, 3288, 3245, 3191, 3233, 3211, 3237, 3259, 3189, 3119, 3129, 3141, -14905, 34782, 90289, -990, 914, -838, -381000, -525000, -3450001, 34301, 3229, 3287, 3245, 3191, 3233, 3211, 3237, 3260, 3189, 3121, 3129, 3141, -15001, 34746, 90319, -1219, 762, -838, -549000, -453000, -3570001, 34390, 3228, 3287, 3244, 3191, 3233, 3211, 3237, 3260, 3190, 3121, 3129, 3141, -14947, 34752, 90038, -1143, 685, -838, -381000, -477000, -3510001, 34479, 3228, 3287, 3244, 3191, 3233, 3211, 3237, 3260, 3190, 3121, 3129, 3141, -15049, 34931, 89721, -990, 609, -762, -333000, -429000, -3630001, 34568, 3228, 3287, 3244, 3191, 3233, 3211, 3237, 3260, 3190, 3121, 3129, 3141, -14684, 34698, 90068, -838, 1067, -838, -405000, -261000, -3390001, 34657, 3228, 3287, 3244, 3191, 3233, 3208, 3237, 3260, 3190, 3121, 3129, 3142, -15115, 34793, 90624, -1295, 609, -914, -405000, -285000, -3690001, 34746, 3228, 3287, 3244, 3189, 3230, 3208, 3237, 3261, 3190, 3121, 3129, 3142, -14869, 34943, 89189, -533, 1219, -990, -285000, -453000, -3450001, 34921, 3231, 3287, 3243, 3189, 3230, 3208, 3238, 3261, 3190, 3121, 3129, 3142, -15103, 34764, 90068, -1067, 1067, -914, -429000, -477000, -3630001, 35010, 3231, 3287, 3243, 3189, 3230, 3208, 3238, 3261, 3190, 3121, 3129, 3142, -15079, 34548, 90325, -1448, 381, -990, -213000, -477000, -3510001, 35099, 3231, 3287, 3243, 3189, 3230, 3208, 3238, 3261, 3190, 3121, 3129, 3142, -15168, 34895, 89865, -533, 1219, -1143, -333000, -573000, -3690001, 35188, 3231, 3289, 3243, 3189, 3230, 3206, 3238, 3261, 3190, 3121, 3129, 3143, -15103, 34811, 90164, -990, 685, -762, -285000, -429000, -3570001, 35277, 3231, 3289, 3243, 3190, 3231, 3206, 3238, 3261, 3190, 3121, 3129, 3143, -15168, 34758, 90337, -1829, 609, -685, -357000, -405000, -3450001, 35366, 3235, 3289, 3243, 3190, 3231, 3206, 3239, 3261, 3190, 3121, 3129, 3143, -15354, 34656, 89769, -1143, 1067, -838, -309000, -381000, -3570001, 35537, 3235, 3289, 3243, 3190, 3231, 3206, 3239, 3261, 3190, 3121, 3129, 3143, -14690, 34494, 90020, -762, 1143, -1067, -333000, -429000, -3690001, 35626, 3235, 3289, 3243, 3190, 3231, 3209, 3239, 3261, 3190, 3121, 3129, 3143, -14965, 34770, 90188, -1600, 0, -381, -405000, -405000, -3630001, 35715, 3235, 3287, 3243, 3190, 3231, 3209, 3239, 3261, 3190, 3121, 3129, 3143, -15252, 34829, 89912, -609, 990, -990, -381000, -429000, -3570001, 35804, 3235, 3287, 3243, 3189, 3232, 3209, 3239, 3261, 3190, 3121, 3130, 3143, -15019, 34656, 90140, -1219, 838, -838, -309000, -357000, -3630001, 35893, 3238, 3287, 3245, 3189, 3232, 3209, 3240, 3261, 3191, 3121, 3130, 3143, -14768, 34423, 89978, -914, 1219, -1067, -333000, -429000, -3510001, 35982, 3238, 3287, 3245, 3189, 3232, 3209, 3240, 3261, 3191, 3121, 3130, 3143, -14923, 34853, 89876, -914, 457, -838, -525000, -453000, -3630001, 36149, 3238, 3287, 3245, 3189, 3232, 3206, 3240, 3261, 3191, 3121, 3130, 3143, -14947, 34692, 89643, -609, 1067, -1143, -285000, -453000, -3510001, 36238, 3238, 3287, 3245, 3188, 3229, 3206, 3240, 3262, 3191, 3122, 3131, 3143, -14965, 34668, 90128, -1753, 533, -533, -333000, -501000, -3750001, 36327, 3238, 3287, 3245, 3188, 3230, 3206, 3240, 3262, 3191, 3122, 3131, 3143, -14881, 34817, 90098, -685, 1143, -1067, -285000, -477000, -3570001, 36416, 3231, 3287, 3242, 3188, 3230, 3206, 3240, 3262, 3191, 3122, 3131, 3143, -15216, 34740, 89763, -1676, 76, -228, -381000, -357000, -3690001, 36505, 3231, 3287, 3242, 3188, 3230, 3206, 3240, 3262, 3191, 3122, 3131, 3143, -14923, 34668, 90409, -990, 838, -762, -405000, -453000, -3630001, 36594, 3231, 3287, 3242, 3188, 3230, 3206, 3240, 3262, 3191, 3122, 3131, 3143, -14845, 34865, 90193, -1371, 838, -685, -309000, -501000, -3510001, 36750, 3231, 3290, 3242, 3190, 3230, 3209, 3240, 3262, 3191, 3122, 3131, 3143, -15671, 34776, 89775, -228, 762, -1371, -453000, -501000, -3570001, 36839, 3231, 3290, 3242, 3190, 3228, 3209, 3240, 3262, 3191, 3122, 3131, 3143, -16155, 34596, 89745, -685, 1829, -1676, -165000, -453000, -3690001, 36928, 3232, 3290, 3241, 3190, 3228, 3209, 3240, 3262, 3191, 3122, 3131, 3143, -14576, 34333, 90044, -685, 1448, -914, -525000, -405000, -3570001, 37017, 3232, 3290, 3241, 3190, 3228, 3209, 3240, 3262, 3191, 3122, 3131, 3143, -15133, 34752, 90349, -1981, -304, -381, -477000, -525000, -3690001, 37106, 3232, 3290, 3241, 3190, 3228, 3209, 3240, 3262, 3191, 3122, 3131, 3143, -15150, 34680, 89727, -457, 1753, -1295, -381000, -573000, -3630001, 37195, 3232, 3286, 3241, 3190, 3228, 3203, 3240, 3262, 3191, 3122, 3131, 3143, -15318, 34674, 89661, -990, 838, -990, -333000, -525000, -3630001, 37369, 3232, 3286, 3241, 3185, 3232, 3203, 3240, 3262, 3191, 3121, 3131, 3143, -14726, 34716, 90116, -1219, 457, -609, -429000, -477000, -3510001, 37458, 3235, 3286, 3245, 3185, 3232, 3203, 3240, 3262, 3191, 3121, 3131, 3143, -15073, 34758, 89972, -1448, 304, -609, -453000, -333000, -3750001, 37547, 3235, 3286, 3245, 3185, 3232, 3203, 3240, 3262, 3191, 3121, 3131, 3143, -14917, 34907, 90152, -685, 1143, -1067, -429000, -285000, -3570001, 37636, 3235, 3286, 3245, 3185, 3232, 3203, 3240, 3262, 3191, 3121, 3131, 3143, -14827, 34327, 90104, -1448, 609, -533, -189000, -477000, -3570001, 37726, 3235, 3290, 3245, 3185, 3232, 3202, 3240, 3262, 3191, 3121, 3131, 3143, -14977, 34698, 89942, -1295, 685, -914, -453000, -621000, -3750001, 37815, 3235, 3290, 3245, 3186, 3234, 3202, 3240, 3262, 3191, 3121, 3132, 3143, -15438, 34799, 89817, -1371, 838, -762, -405000, -405000, -3630001, 37988, 3233, 3290, 3244, 3186, 3234, 3202, 3241, 3262, 3192, 3121, 3132, 3143, -14863, 34650, 90301, -1371, 762, -762, -453000, -381000, -3630001, 38077, 3233, 3290, 3244, 3186, 3234, 3202, 3241, 3262, 3192, 3121, 3132, 3143, -15091, 34518, 89823, -1600, 609, -609, -261000, -429000, -3510001, 38166, 3233, 3290, 3244, 3186, 3234, 3208, 3241, 3262, 3192, 3121, 3132, 3144, -15162, 34620, 89691, -990, 1067, -990, -237000, -477000, -3630001, 38255, 3233, 3293, 3244, 3183, 3234, 3208, 3241, 3263, 3192, 3122, 3132, 3144, -14941, 34704, 89799, -609, 914, -838, -501000, -405000, -3630001, 38344, 3233, 3293, 3244, 3183, 3236, 3208, 3241, 3263, 3192, 3122, 3132, 3144, -14851, 34638, 90229, -1143, 685, -685, -285000, -525000, -3690001, 38433, 3236, 3293, 3244, 3183, 3236, 3208, 3242, 3263, 3192, 3122, 3132, 3144, -14983, 34596, 90032, -1067, 838, -838, -333000, -525000, -3750001, 38595, 3236, 3293, 3241, 3183, 3236, 3208, 3242, 3263, 3192, 3122, 3132, 3144, -14953, 34847, 90307, -1143, 533, -762, -381000, -453000, -3630001, 38684, 3236, 3293, 3241, 3183, 3236, 3208, 3242, 3263, 3192, 3122, 3132, 3144, -15198, 34662, 89691, -762, 990, -1067, -405000, -453000, -3750001, 38773, 3236, 3292, 3241, 3188, 3236, 3208, 3242, 3263, 3192, 3122, 3132, 3144, -14702, 34662, 90247, -1219, 838, -609, -381000, -549000, -3450001, 38862, 3236, 3292, 3241, 3188, 3232, 3208, 3242, 3263, 3192, 3122, 3132, 3144, -14905, 34746, 89900, -1371, 838, -838, -357000, -501000, -3390001, 38951, 3234, 3292, 3241, 3188, 3232, 3208, 3242, 3263, 3192, 3122, 3132, 3144, -15097, 34680, 89595, -1067, 762, -762, -429000, -429000, -3570001, 39040, 3234, 3292, 3239, 3188, 3232, 3208, 3242, 3263, 3192, 3122, 3132, 3144, -15031, 34710, 89673, -762, 762, -914, -429000, -549000, -3570001, 39215, 3234, 3292, 3239, 3188, 3232, 3209, 3242, 3263, 3192, 3122, 3132, 3144, -14756, 34943, 90295, -1219, 838, -838, -381000, -549000, -3510001, 39304, 3234, 3292, 3239, 3187, 3232, 3209, 3242, 3263, 3192, 3121, 3132, 3144, -15144, 34740, 89996, -914, 914, -914, -405000, -525000, -3630001, 39393, 3234, 3292, 3239, 3187, 3232, 3209, 3242, 3263, 3192, 3121, 3132, 3144, -15007, 34656, 89859, -914, 914, -838, -429000, -525000, -3570001, 39482, 3236, 3292, 3239, 3187, 3232, 3209, 3242, 3263, 3192, 3121, 3132, 3144, -15138, 34494, 90014, -1295, 533, -685, -357000, -477000, -3570001, 39571, 3236, 3292, 3243, 3187, 3232, 3209, 3242, 3263, 3193, 3121, 3132, 3144, -14935, 34674, 90170, -1143, 838, -914, -477000, -501000, -3450001, 39660, 3236, 3292, 3243, 3187, 3232, 3209, 3242, 3263, 3193, 3121, 3132, 3144, -14845, 34632, 89966, -1295, 533, -609, -405000, -453000, -3450001, 39827, 3236, 3291, 3243, 3187, 3232, 3210, 3242, 3263, 3193, 3121, 3132, 3145, -14845, 34686, 90074, -1067, 914, -838, -333000, -525000, -3510001, 39916, 3236, 3291, 3243, 3187, 3232, 3210, 3242, 3263, 3193, 3121, 3132, 3145, -14983, 34728, 90349, -1676, 457, -457, -381000, -621000, -3570001, 40005, 3231, 3291, 3243, 3187, 3232, 3210, 3242, 3263, 3193, 3121, 3132, 3145, -15127, 34614, 89751, -990, 685, -838, -477000, -477000, -3630001, 40094, 3231, 3291, 3246, 3187, 3232, 3210, 3242, 3263, 3193, 3121, 3132, 3145, -15222, 34656, 90122, -914, 914, -838, -285000, -549000, -3510001, 40183, 3231, 3291, 3246, 3187, 3232, 3210, 3242, 3263, 3193, 3121, 3132, 3145, -14851, 34620, 90014, -1143, 685, -914, -405000, -501000, -3750001, 40272, 3231, 3291, 3246, 3180, 3232, 3209, 3242, 3264, 3193, 3121, 3132, 3145, -15019, 34363, 89960, -1448, 685, -685, -453000, -453000, -3510001, 40440, 3231, 3291, 3246, 3180, 3231, 3209, 3242, 3264, 3193, 3121, 3132, 3145, -14839, 34572, 90182, -838, 914, -838, -453000, -381000, -3690001, 40529, 3233, 3291, 3246, 3180, 3231, 3209, 3242, 3264, 3193, 3121, 3132, 3145, -14612, 34512, 90158, -1295, 838, -762, -357000, -525000, -3750001, 40618, 3233, 3291, 3244, 3180, 3231, 3209, 3242, 3264, 3193, 3121, 3132, 3145, -15174, 34668, 89781, -1067, 914, -838, -381000, -453000, -3450001, 40707, 3233, 3288, 3244, 3180, 3231, 3206, 3242, 3264, 3193, 3121, 3132, 3145, -14863, 34752, 90176, -1143, 609, -685, -405000, -525000, -3570001, 40796, 3233, 3288, 3244, 3187, 3231, 3206, 3242, 3264, 3193, 3121, 3132, 3145, -14911, 34650, 90337, -1143, 838, -762, -285000, -549000, -3570001, 40885, 3233, 3288, 3244, 3187, 3231, 3206, 3242, 3264, 3193, 3121, 3132, 3145, -14947, 34524, 90074, -1371, 762, -685, -333000, -381000, -3630001, 41042, 3233, 3288, 3244, 3187, 3234, 3206, 3242, 3264, 3193, 3121, 3132, 3145, -14941, 34710, 89733, -838, 1067, -914, -285000, -453000, -3570001, 41131, 3233, 3288, 3245, 3187, 3234, 3206, 3242, 3264, 3194, 3121, 3132, 3145, -15019, 34470, 90122, -1143, 685, -762, -429000, -429000, -3570001, 41220, 3233, 3287, 3245, 3187, 3234, 3210, 3242, 3264, 3194, 3121, 3132, 3146, -14839, 34590, 89972, -990, 990, -838, -261000, -453000, -3630001, 41309, 3233, 3287, 3245, 3185, 3234, 3210, 3242, 3264, 3194, 3122, 3132, 3146, -15138, 34596, 89715, -990, 685, -838, -357000, -429000, -3570001, 41398, 3233, 3287, 3245, 3185, 3234, 3210, 3242, 3264, 3194, 3122, 3132, 3146, -14929, 34799, 90283, -990, 914, -914, -429000, -309000, -3510001, 41487, 3236, 3287, 3245, 3185, 3231, 3210, 3243, 3264, 3194, 3122, 3132, 3146, -15037, 34722, 89835, -1067, 914, -838, -381000, -357000, -3570001, 41659, 3236, 3287, 3247, 3185, 3231, 3210, 3243, 3264, 3194, 3122, 3132, 3146, -14983, 34698, 89984, -1143, 762, -762, -357000, -381000, -3630001, 41748, 3236, 3288, 3247, 3185, 3231, 3210, 3243, 3265, 3194, 3123, 3132, 3146, -14756, 34560, 90271, -1371, 457, -533, -429000, -381000, -3630001, 41837, 3236, 3288, 3247, 3185, 3231, 3210, 3243, 3265, 3194, 3123, 3132, 3146, -14923, 34859, 89936, -914, 838, -838, -381000, -429000, -3630001, 41926, 3236, 3288, 3247, 3185, 3231, 3210, 3243, 3265, 3194, 3123, 3132, 3146, -14672, 34429, 90552, -1600, 457, -533, -453000, -309000, -3690001, 42015, 3234, 3288, 3247, 3185, 3230, 3210, 3243, 3265, 3194, 3123, 3132, 3146, -14917, 34710, 89936, -1067, 762, -762, -429000, -477000, -3750001, 42104, 3234, 3288, 3247, 3185, 3230, 3210, 3243, 3265, 3194, 3123, 3132, 3146, -14917, 34560, 90008, -1371, 685, -685, -213000, -333000, -3630001, 42279, 3234, 3288, 3247, 3184, 3230, 3210, 3243, 3265, 3194, 3123, 3132, 3146, -14935, 34596, 89793, -1295, 609, -762, -405000, -477000, -3750001, 42368, 3234, 3288, 3247, 3184, 3230, 3210, 3243, 3265, 3194, 3123, 3132, 3146, -14935, 34716, 90265, -838, 838, -914, -405000, -429000, -3510001, 42457, 3234, 3288, 3247, 3184, 3233, 3210, 3243, 3265, 3194, 3123, 3132, 3146, -14786, 34441, 89888, -1295, 762, -609, -381000, -453000, -3510001, 42546, 3235, 3288, 3247, 3184, 3233, 3210, 3243, 3265, 3194, 3123, 3132, 3146, -14702, 34692, 89865, -990, 609, -838, -429000, -549000, -3750001, 42635, 3235, 3288, 3246, 3184, 3233, 3210, 3243, 3265, 3194, 3123, 3132, 3146, -15013, 34447, 90134, -1600, 533, -685, -549000, -525000, -3450001, 42724, 3235, 3295, 3246, 3184, 3233, 3210, 3243, 3265, 3194, 3123, 3132, 3146, -14827, 34943, 90020, -1067, 838, -762, -285000, -429000, -3630001, 42901, 3235, 3295, 3246, 3182, 3233, 3207, 3243, 3265, 3194, 3123, 3132, 3146, -15085, 34662, 90116, -838, 990, -838, -573000, -453000, -3510001, 42990, 3235, 3295, 3246, 3182, 3232, 3207, 3243, 3265, 3194, 3123, 3133, 3146, -14965, 34752, 90122, -1067, 762, -762, -429000, -357000, -3630001, 43079, 3236, 3295, 3246, 3182, 3232, 3207, 3244, 3265, 3194, 3123, 3133, 3146, -15043, 34841, 90044, -1219, 685, -762, -261000, -549000, -3630001, 43168, 3236, 3295, 3242, 3182, 3232, 3207, 3244, 3265, 3195, 3123, 3133, 3146, -15031, 34530, 89847, -990, 762, -914, -357000, -453000, -3330001, 43257, 3236, 3291, 3242, 3182, 3232, 3206, 3244, 3266, 3195, 3123, 3133, 3147, -14959, 34584, 89775, -1067, 914, -838, -357000, -525000, -3510001, 43346, 3236, 3291, 3242, 3183, 3232, 3206, 3244, 3266, 3195, 3123, 3133, 3147, -15019, 34632, 89847, -1295, 762, -685, -381000, -381000, -3690001, 43500, 3236, 3291, 3242, 3183, 3227, 3206, 3244, 3266, 3195, 3123, 3133, 3147, -14917, 34339, 89769, -762, 838, -1067, -309000, -597000, -3570001, 43589, 3231, 3291, 3242, 3183, 3227, 3206, 3245, 3266, 3195, 3123, 3133, 3147, -14714, 34447, 89936, -1295, 685, -685, -285000, -429000, -3570001, 43678, 3231, 3291, 3245, 3183, 3227, 3206, 3245, 3266, 3196, 3123, 3133, 3147, -14983, 34584, 90445, -1067, 685, -685, -357000, -477000, -3630001, 43767, 3231, 3290, 3245, 3188, 3227, 3215, 3245, 3266, 3196, 3124, 3133, 3148, -15121, 34447, 89661, -1371, 762, -685, -285000, -525000, -3570001, 43856, 3231, 3290, 3245, 3188, 3227, 3215, 3245, 3266, 3196, 3124, 3133, 3148, -14810, 34530, 90086, -1143, 762, -762, -357000, -573000, -3630001, 43945, 3231, 3290, 3245, 3188, 3227, 3215, 3245, 3266, 3196, 3124, 3133, 3148, -14833, 34704, 89589, -1371, 609, -685, -357000, -501000, -3630001, 44112, 3235, 3290, 3245, 3188, 3233, 3215, 3245, 3266, 3196, 3124, 3132, 3148, -14851, 34692, 89817, -1143, 762, -838, -357000, -429000, -3570001, 44201, 3235, 3290, 3245, 3188, 3233, 3215, 3245, 3266, 3196, 3124, 3132, 3148, -14660, 34584, 89751, -533, 1219, -914, -381000, -501000, -3510001, 44290, 3235, 3293, 3245, 3188, 3233, 3208, 3245, 3266, 3196, 3124, 3132, 3148, -14798, 34530, 90008, -1600, 228, -381, -357000, -525000, -3450001, 44379, 3235, 3293, 3245, 3188, 3233, 3208, 3245, 3266, 3196, 3124, 3132, 3148, -15402, 34913, 89643, -381, 1219, -1143, -429000, -453000, -3630001, 44468, 3235, 3293, 3245, 3188, 3233, 3208, 3245, 3266, 3196, 3124, 3132, 3148, -15055, 34793, 90014, -685, 914, -1143, -453000, -573000, -3510001, 44557, 3237, 3293, 3245, 3188, 3231, 3208, 3244, 3266, 3196, 3124, 3132, 3148, -14618, 34817, 90188, -914, 1067, -838, -405000, -501000, -3450001, 44728, 3237, 3289, 3244, 3188, 3231, 3208, 3244, 3266, 3196, 3124, 3132, 3148, -14977, 34710, 90134, -914, 990, -762, -477000, -477000, -3570001, 44817, 3237, 3289, 3244, 3187, 3231, 3210, 3244, 3266, 3196, 3124, 3132, 3148, -15025, 34399, 89918, -1219, 609, -838, -453000, -525000, -3630001, 44906, 3237, 3289, 3244, 3187, 3231, 3210, 3244, 3266, 3196, 3124, 3132, 3148, -14839, 34632, 89984, -990, 838, -838, -477000, -501000, -3570001, 44995, 3237, 3289, 3244, 3187, 3231, 3210, 3244, 3266, 3196, 3124, 3132, 3148, -15097, 34632, 90104, -762, 762, -838, -429000, -477000, -3630001, 45084, 3235, 3289, 3244, 3187, 3231, 3210, 3244, 3266, 3196, 3124, 3132, 3148, -15144, 34698, 90235, -1295, 685, -990, -381000, -477000, -3690001, 45173, 3235, 3289, 3244, 3187, 3231, 3210, 3244, 3266, 3196, 3124, 3132, 3148, -14570, 34327, 89601, -1067, 990, -914, -381000, -501000, -3510001, 45345, 3235, 3293, 3245, 3190, 3231, 3211, 3244, 3266, 3196, 3125, 3132, 3148, -15617, 35099, 89733, -1067, 1295, -1219, -381000, -501000, -3570001, 45434, 3235, 3293, 3245, 3190, 3231, 3211, 3244, 3266, 3196, 3125, 3132, 3148, -14792, 34770, 89643, -533, 1676, -1067, -429000, -429000, -3510001, 45523, 3235, 3293, 3245, 3190, 3231, 3211, 3244, 3266, 3196, 3125, 3132, 3148, -14995, 34608, 90074, -457, 1067, -1067, -309000, -381000, -3570001, 45612, 3234, 3293, 3245, 3190, 3228, 3211, 3245, 3266, 3196, 3125, 3132, 3148, -14923, 34351, 90534, -1371, 533, -1295, -477000, -525000, -3750001, 45701, 3234, 3293, 3245, 3190, 3228, 3211, 3245, 3266, 3196, 3125, 3132, 3148, -13739, 34494, 88190, -228, 2057, -304, -477000, -477000, -3510001, 45790, 3234, 3293, 3246, 3188, 3228, 3211, 3245, 3267, 3196, 3126, 3132, 3148, -15354, 34782, 89356, -762, 762, -762, -405000, -381000, -3570001, 45949, 3234, 3293, 3246, 3188, 3228, 3211, 3245, 3267, 3196, 3126, 3132, 3148, -15354, 34560, 89033, -1524, 1600, -838, -357000, -429000, -3570001, 46038, 3234, 3293, 3246, 3188, 3228, 3211, 3245, 3267, 3196, 3126, 3132, 3148, -14439, 34668, 89882, -1143, -152, -304, -309000, -453000, -3510001, 46127, 3238, 3293, 3246, 3188, 3228, 3211, 3245, 3267, 3196, 3126, 3133, 3148, -15671, 34901, 89691, -685, 1067, -1143, -429000, -477000, -3630001, 46216, 3238, 3290, 3246, 3188, 3228, 3211, 3245, 3267, 3196, 3126, 3133, 3148, -15031, 34662, 90193, -762, 914, -914, -333000, -477000, -3630001, 46305, 3238, 3290, 3248, 3191, 3228, 3212, 3245, 3267, 3196, 3126, 3133, 3148, -14935, 34530, 89859, -1067, 1295, -1067, -381000, -381000, -3570001, 46394, 3238, 3290, 3248, 3191, 3228, 3212, 3245, 3267, 3196, 3126, 3133, 3148, -15192, 34931, 90086, -1524, 685, -609, -477000, -549000, -3570001, 46573, 3238, 3290, 3248, 3191, 3228, 3212, 3245, 3267, 3196, 3126, 3133, 3148, -14941, 34536, 89847, -1067, 1067, -914, -381000, -429000, -3630001, 46662, 3236, 3290, 3248, 3191, 3232, 3212, 3246, 3267, 3196, 3126, 3134, 3148, -15007, 34554, 90020, -762, 762, -990, -333000, -501000, -3450001, 46751, 3236, 3291, 3248, 3191, 3232, 3212, 3246, 3267, 3196, 3126, 3134, 3148, -14977, 34405, 89996, -1067, 685, -762, -501000, -621000, -3570001, 46840, 3236, 3291, 3246, 3189, 3232, 3213, 3246, 3267, 3196, 3127, 3134, 3149, -14887, 34722, 90307, -1524, 457, -609, -261000, -381000, -3570001, 46929, 3236, 3291, 3246, 3189, 3232, 3213, 3246, 3267, 3196, 3127, 3134, 3149, -14923, 34799, 90211, -1219, 838, -838, -357000, -453000, -3450001, 47018, 3236, 3291, 3246, 3189, 3232, 3213, 3246, 3267, 3196, 3127, 3134, 3149, -15103, 34740, 89571, -990, 838, -838, -357000, -405000, -3630001, 47192, 3235, 3291, 3246, 3189, 3231, 3213, 3247, 3267, 3196, 3127, 3135, 3149, -15073, 34417, 89817, -838, 990, -914, -429000, -309000, -3570001, 47281, 3235, 3293, 3245, 3189, 3231, 3213, 3247, 3268, 3196, 3127, 3135, 3149, -14911, 34524, 89936, -1448, 609, -685, -453000, -501000, -3690001, 47370, 3235, 3293, 3246, 3189, 3231, 3208, 3247, 3268, 3196, 3127, 3135, 3149, -14995, 34704, 89918, -990, 533, -762, -213000, -621000, -3570001, 47459, 3235, 3293, 3246, 3189, 3231, 3208, 3247, 3268, 3196, 3127, 3135, 3149, -14929, 34626, 90283, -990, 685, -685, -189000, -597000, -3390001, 47548, 3235, 3293, 3246, 3189, 3231, 3208, 3247, 3268, 3196, 3127, 3135, 3149, -14816, 34626, 90277, -1143, 914, -838, -357000, -549000, -3690001, 47637, 3234, 3293, 3246, 3189, 3233, 3208, 3247, 3268, 3196, 3127, 3135, 3149, -14995, 34644, 89918, -1143, 685, -762, -237000, -501000, -3630001, 47791, 3234, 3290, 3246, 3188, 3233, 3208, 3247, 3268, 3196, 3127, 3135, 3149, -14989, 34596, 89894, -1067, 762, -838, -285000, -501000, -3570001, 47880, 3234, 3290, 3246, 3188, 3233, 3212, 3247, 3268, 3197, 3127, 3135, 3150, -14917, 34614, 90110, -1295, 685, -685, -381000, -405000, -3690001, 47969, 3234, 3290, 3246, 3188, 3233, 3212, 3247, 3268, 3197, 3127, 3135, 3150, -15049, 34770, 90020, -1219, 685, -762, -309000, -405000, -3630001, 48058, 3234, 3290, 3246, 3188, 3233, 3212, 3247, 3268, 3197, 3127, 3135, 3150, -14965, 34770, 89954, -1143, 914, -762, -405000, -645000, -3630001, 48147, 3233, 3290, 3246, 3188, 3235, 3212, 3247, 3268, 3197, 3127, 3135, 3150, -14953, 34554, 89709, -1143, 914, -838, -453000, -477000, -3510001, 48236, 3233, 3293, 3246, 3188, 3235, 3212, 3247, 3268, 3197, 3127, 3135, 3150, -14947, 34656, 90146, -990, 1067, -914, -285000, -573000, -3630001, 48404, 3233, 3293, 3248, 3189, 3235, 3210, 3247, 3268, 3197, 3129, 3135, 3151, -15312, 34793, 89841, -1143, 609, -762, -357000, -405000, -3690001, 48493, 3233, 3293, 3248, 3189, 3235, 3210, 3247, 3268, 3197, 3129, 3135, 3151, -14923, 34632, 89978, -990, 990, -914, -309000, -453000, -3690001, 48582, 3233, 3293, 3248, 3189, 3235, 3210, 3247, 3268, 3197, 3129, 3135, 3151, -14989, 34650, 89703, -1219, 838, -838, -357000, -453000, -3750001, 48671, 3238, 3293, 3248, 3189, 3237, 3210, 3247, 3268, 3197, 3129, 3135, 3151, -14839, 34596, 89882, -1219, 838, -762, -405000, -549000, -3570001, 48760, 3238, 3292, 3248, 3189, 3237, 3210, 3247, 3268, 3197, 3129, 3135, 3151, -15025, 34423, 89619, -1219, 838, -762, -357000, -549000, -3510001, 48849, 3238, 3292, 3244, 3189, 3237, 3214, 3247, 3268, 3197, 3129, 3135, 3151, -14923, 34608, 89900, -1219, 685, -685, -405000, -501000, -3630001, 49021, 3238, 3292, 3244, 3189, 3237, 3214, 3247, 3268, 3197, 3129, 3135, 3151, -15336, 34453, 89368, -1143, 838, -914, -309000, -477000, -3630001, 49110, 3238, 3292, 3244, 3189, 3237, 3214, 3247, 3268, 3197, 3129, 3135, 3151, -14881, 34393, 90301, -1676, 152, -381, -405000, -429000, -3630001, 49199, 3236, 3292, 3244, 3189, 3236, 3214, 3247, 3268, 3197, 3129, 3136, 3151, -15396, 34734, 89763, -1219, 609, -762, -381000, -525000, -3630001, 49288, 3236, 3292, 3244, 3195, 3236, 3214, 3247, 3269, 3197, 3129, 3136, 3151, -14971, 34614, 90038, -990, 914, -914, -429000, -453000, -3630001, 49377, 3236, 3292, 3245, 3195, 3236, 3216, 3247, 3269, 3197, 3129, 3136, 3151, -14965, 34877, 90032, -1067, 914, -990, -309000, -597000, -3570001, 49466, 3236, 3292, 3245, 3195, 3236, 3216, 3247, 3269, 3197, 3129, 3136, 3151, -15061, 34596, 89589, -990, 1067, -914, -405000, -261000, -3690001, 49639, 3236, 3292, 3245, 3195, 3236, 3216, 3247, 3269, 3197, 3129, 3136, 3151, -15127, 34835, 89667, -1143, 762, -914, -381000, -381000, -3510001, 49728, 3236, 3295, 3245, 3195, 3237, 3216, 3247, 3269, 3197, 3129, 3137, 3151, -15282, 34728, 89655, -1143, 609, -838, -381000, -453000, -3570001, 49817, 3236, 3295, 3245, 3192, 3237, 3216, 3247, 3269, 3197, 3129, 3137, 3151, -15031, 34632, 89966, -1067, 762, -838, -621000, -453000, -3570001, 49906, 3236, 3295, 3248, 3192, 3237, 3211, 3247, 3269, 3198, 3129, 3137, 3151, -14863, 34662, 90080, -1067, 685, -838, -525000, -597000, -3510001, 49995, 3236, 3295, 3248, 3192, 3237, 3211, 3247, 3269, 3198, 3129, 3137, 3151, -14887, 34644, 89996, -1219, 685, -762, -429000, -381000, -3690001, 50084, 3236, 3295, 3248, 3192, 3237, 3211, 3247, 3269, 3198, 3129, 3137, 3151, -15043, 34620, 90229, -990, 838, -914, -429000, -573000, -3570001, 50244, 3235, 3291, 3248, 3192, 3233, 3211, 3248, 3269, 3198, 3129, 3137, 3151, -15055, 34704, 90259, -1067, 914, -838, -261000, -501000, -3690001, 50333, 3235, 3291, 3248, 3190, 3233, 3211, 3248, 3269, 3198, 3129, 3137, 3151, -14941, 34692, 90014, -914, 762, -838, -309000, -453000, -3510001, 50422, 3235, 3291, 3247, 3190, 3233, 3214, 3248, 3269, 3198, 3129, 3137, 3152, -15121, 34716, 89601, -990, 990, -838, -381000, -453000, -3630001, 50511, 3235, 3291, 3247, 3190, 3233, 3214, 3248, 3269, 3198, 3129, 3137, 3152, -14833, 34722, 89942, -1448, 533, -685, -285000, -573000, -3690001, 50600, 3235, 3291, 3247, 3190, 3233, 3214, 3248, 3269, 3198, 3129, 3137, 3152, -15025, 34578, 89733, -990, 762, -838, -477000, -501000, -3690001, 50689, 3237, 3291, 3247, 3190, 3233, 3214, 3249, 3269, 3198, 3129, 3137, 3152, -15121, 34662, 90277, -1067, 533, -762, -405000, -549000, -3630001, 50867, 3237, 3293, 3247, 3186, 3233, 3214, 3249, 3269, 3198, 3130, 3137, 3152, -14971, 34734, 90068, -1219, 762, -609, -357000, -621000, -3630001, 50956, 3237, 3293, 3244, 3186, 3233, 3215, 3249, 3269, 3197, 3130, 3137, 3153, -15019, 34674, 89853, -762, 1143, -1067, -405000, -501000, -3630001, 51045, 3237, 3293, 3244, 3186, 3233, 3215, 3249, 3269, 3197, 3130, 3137, 3153, -15282, 34692, 89709, -1219, 609, -838, -453000, -333000, -3450001, 51134, 3237, 3293, 3244, 3186, 3233, 3215, 3249, 3269, 3197, 3130, 3137, 3153, -15061, 34674, 90235, -762, 990, -1067, -333000, -477000, -3630001, 51223, 3239, 3293, 3244, 3186, 3233, 3215, 3250, 3269, 3197, 3130, 3137, 3153, -14953, 34560, 90134, -1371, 762, -685, -285000, -357000, -3510001, 51312, 3239, 3294, 3244, 3193, 3236, 3215, 3250, 3270, 3197, 3131, 3137, 3153, -14947, 34417, 90247, -1219, 762, -762, -213000, -525000, -3690001, 51479, 3239, 3294, 3245, 3193, 3236, 3212, 3250, 3270, 3197, 3131, 3137, 3153, -15013, 34578, 89781, -1143, 762, -914, -429000, -333000, -3630001, 51568, 3239, 3294, 3245, 3193, 3236, 3212, 3250, 3270, 3197, 3131, 3137, 3153, -14845, 34602, 90116, -762, 1295, -990, -285000, -549000, -3810001, 51657, 3239, 3294, 3245, 3193, 3236, 3212, 3250, 3270, 3197, 3131, 3137, 3153, -14780, 34465, 89835, -1371, 609, -609, -333000, -429000, -3690001, 51746, 3239, 3293, 3245, 3193, 3236, 3212, 3250, 3270, 3197, 3131, 3137, 3153, -15061, 34470, 89805, -1219, 685, -685, -261000, -573000, -3750001, 51835, 3239, 3293, 3245, 3193, 3234, 3212, 3250, 3270, 3197, 3131, 3137, 3153, -15282, 34584, 89691, -914, 533, -762, -429000, -405000, -3630001, 51924, 3239, 3293, 3245, 3193, 3234, 3213, 3250, 3270, 3197, 3131, 3137, 3153, -15133, 34644, 89954, -914, 762, -838, -333000, -405000, -3690001, 52091, 3239, 3293, 3244, 3193, 3234, 3213, 3250, 3270, 3198, 3131, 3137, 3153, -15031, 34548, 90044, -1295, 990, -762, -405000, -549000, -3690001, 52180, 3239, 3293, 3244, 3193, 3234, 3213, 3250, 3270, 3198, 3131, 3137, 3153, -14929, 34805, 89984, -1219, 533, -685, -645000, -501000, -3690001, 52269, 3236, 3290, 3244, 3193, 3234, 3213, 3250, 3269, 3198, 3131, 3138, 3153, -15109, 34393, 89984, -914, 914, -914, -405000, -525000, -3570001, 52358, 3236, 3290, 3244, 3194, 3234, 3213, 3250, 3269, 3198, 3132, 3138, 3153, -14798, 34536, 90098, -1295, 762, -762, -453000, -549000, -3390001, 52447, 3236, 3290, 3244, 3194, 3234, 3216, 3250, 3269, 3198, 3132, 3138, 3153, -14875, 34375, 90074, -1371, 685, -762, -333000, -573000, -3510001, 52536, 3236, 3290, 3246, 3194, 3234, 3216, 3250, 3269, 3198, 3132, 3138, 3153, -15055, 34578, 89853, -1219, 609, -609, -453000, -309000, -3690001, 52693, 3236, 3290, 3246, 3194, 3234, 3216, 3250, 3269, 3198, 3132, 3138, 3153, -14923, 34686, 89841, -990, 914, -838, -477000, -549000, -3630001, 52782, 3236, 3290, 3246, 3194, 3234, 3216, 3250, 3269, 3198, 3132, 3138, 3153, -15127, 34614, 89906, -1067, 685, -609, -333000, -453000, -3570001, 52871, 3236, 3290, 3246, 3192, 3234, 3216, 3250, 3269, 3198, 3133, 3139, 3153, -15079, 34590, 89577, -1143, 838, -685, -357000, -477000, -3570001, 52960, 3236, 3290, 3246, 3192, 3234, 3217, 3250, 3269, 3198, 3133, 3139, 3154, -14995, 34650, 89996, -990, 838, -990, -549000, -357000, -3690001, 53049, 3236, 3290, 3242, 3192, 3234, 3217, 3250, 3269, 3198, 3133, 3139, 3154, -14827, 34327, 90074, -1295, 609, -762, -309000, -573000, -3690001, 53138, 3236, 3290, 3242, 3192, 3234, 3217, 3250, 3269, 3198, 3133, 3139, 3154, -15156, 34746, 89894, -914, 838, -914, -285000, -597000, -3750001, 53310, 3234, 3293, 3242, 3195, 3233, 3217, 3250, 3269, 3198, 3134, 3139, 3154, -14893, 34542, 90217, -1371, 457, -685, -261000, -621000, -3750001, 53399, 3234, 3293, 3242, 3196, 3233, 3217, 3250, 3269, 3198, 3134, 3139, 3154, -15127, 34638, 89721, -1143, 838, -914, -525000, -477000, -3690001, 53488, 3234, 3293, 3242, 3196, 3233, 3215, 3250, 3269, 3198, 3134, 3139, 3154, -15144, 34644, 90074, -1295, 685, -609, -333000, -405000, -3510001, 53577, 3234, 3293, 3241, 3196, 3233, 3215, 3250, 3269, 3198, 3134, 3139, 3154, -15115, 34572, 89781, -914, 838, -838, -333000, -453000, -3630001, 53666, 3234, 3293, 3241, 3196, 3233, 3215, 3250, 3269, 3198, 3134, 3139, 3154, -15168, 34536, 90211, -1371, 685, -762, -381000, -525000, -3630001, 53755, 3239, 3291, 3241, 3196, 3233, 3215, 3250, 3269, 3198, 3134, 3139, 3154, -14636, 34465, 89829, -1143, 685, -609, -453000, -501000, -3630001, 53929, 3239, 3291, 3241, 3198, 3237, 3214, 3250, 3269, 3198, 3134, 3139, 3155, -14738, 34608, 89906, -1219, 457, -762, -573000, -621000, -3510001, 54018, 3239, 3291, 3241, 3198, 3237, 3215, 3250, 3269, 3198, 3134, 3139, 3155, -15025, 34626, 89954, -1067, 533, -838, -453000, -333000, -3630001, 54107, 3239, 3291, 3246, 3198, 3237, 3215, 3250, 3269, 3198, 3134, 3139, 3155, -15312, 34835, 90068, -685, 990, -990, -357000, -549000, -3630001, 54196, 3239, 3291, 3246, 3198, 3237, 3215, 3250, 3269, 3198, 3134, 3139, 3155, -14947, 34387, 90146, -990, 685, -609, -381000, -525000, -3690001, 54285, 3234, 3292, 3246, 3198, 3237, 3215, 3250, 3269, 3198, 3134, 3139, 3155, -14983, 34494, 89954, -1676, 838, -685, -237000, -525000, -3510001, 54374, 3234, 3292, 3246, 3195, 3234, 3215, 3250, 3269, 3198, 3134, 3140, 3155, -15246, 34871, 89745, -1524, 457, -609, -381000, -453000, -3570001, 54549, 3234, 3292, 3241, 3195, 3234, 3212, 3250, 3269, 3198, 3134, 3140, 3156, -14887, 34512, 90056, -762, 838, -762, -429000, -453000, -3570001, 54638, 3234, 3292, 3241, 3195, 3234, 3212, 3250, 3269, 3198, 3134, 3140, 3156, -14983, 34405, 89870, -1524, 914, -762, -405000, -429000, -3630001, 54727, 3234, 3292, 3241, 3195, 3234, 3212, 3250, 3269, 3198, 3134, 3140, 3156, -15204, 34566, 89799, -1524, 762, -685, -333000, -429000, -3570001, 54816, 3240, 3292, 3241, 3195, 3234, 3212, 3250, 3269, 3198, 3135, 3140, 3156, -15115, 34728, 89272, -533, 914, -990, -453000, -429000, -3750001, 54905, 3240, 3292, 3241, 3198, 3235, 3212, 3250, 3269, 3198, 3135, 3140, 3156, -15001, 34644, 89823, -990, 533, -762, -357000, -501000, -3630001, 54994, 3240, 3292, 3241, 3198, 3235, 3213, 3250, 3269, 3198, 3135, 3140, 3156, -15067, 34752, 90074, -838, 914, -838, -333000, -405000, -3630001, 55152, 3240, 3292, 3243, 3198, 3235, 3213, 3250, 3269, 3198, 3135, 3140, 3156, -14989, 34512, 89422, -762, 762, -990, -381000, -573000, -3450001, 55241, 3240, 3292, 3243, 3198, 3235, 3213, 3250, 3269, 3198, 3135, 3140, 3156, -15019, 34740, 90098, -990, 533, -685, -429000, -381000, -3570001, 55330, 3236, 3292, 3243, 3196, 3235, 3213, 3250, 3269, 3198, 3136, 3140, 3156, -15216, 34626, 90469, -1295, 533, -762, -165000, -549000, -3510001, 55419, 3236, 3292, 3243, 3196, 3238, 3213, 3250, 3269, 3198, 3136, 3140, 3156, -15593, 34913, 89404, -762, 1067, -1067, -309000, -453000, -3810001, 55508, 3236, 3292, 3243, 3196, 3238, 3216, 3250, 3269, 3198, 3136, 3140, 3156, -15109, 34871, 90373, -1067, 609, -533, -261000, -477000, -3690001, 55597, 3236, 3292, 3240, 3196, 3238, 3216, 3250, 3269, 3198, 3136, 3140, 3156, -14612, 34255, 90558, -1829, 685, -685, -405000, -525000, -3690001, 55764, 3236, 3285, 3240, 3196, 3238, 3216, 3250, 3269, 3198, 3136, 3140, 3156, -15127, 34889, 89781, -609, 609, -838, -429000, -477000, -3690001, 55853, 3237, 3285, 3240, 3197, 3238, 3216, 3250, 3269, 3198, 3136, 3140, 3156, -14893, 34393, 90307, -609, 838, -990, -237000, -429000, -3690001, 55942, 3237, 3285, 3240, 3197, 3236, 3216, 3250, 3269, 3198, 3136, 3140, 3156, -14648, 34381, 90170, -1448, 457, -609, -309000, -381000, -3570001, 56032, 3237, 3285, 3240, 3197, 3236, 3214, 3250, 3269, 3198, 3136, 3140, 3156, -15067, 34381, 89865, -1600, 762, -609, -405000, -453000, -3750001, 56121, 3237, 3285, 3243, 3197, 3236, 3214, 3250, 3269, 3199, 3136, 3140, 3156, -14929, 34620, 89715, -838, 685, -762, -333000, -525000, -3510001, 56210, 3237, 3285, 3243, 3197, 3236, 3214, 3250, 3269, 3199, 3136, 3140, 3156, -15037, 34578, 89805, -762, 685, -762, -309000, -453000, -3510001, 56379, 3237, 3288, 3243, 3196, 3236, 3214, 3250, 3269, 3199, 3136, 3140, 3156, -15085, 34578, 89954, -1295, 685, -685, -405000, -501000, -3510001, 56468, 3237, 3288, 3243, 3196, 3237, 3214, 3250, 3269, 3199, 3136, 3140, 3156, -15073, 34512, 89912, -1295, 762, -762, -405000, -525000, -3570001, 56557, 3237, 3288, 3243, 3196, 3237, 3214, 3250, 3269, 3199, 3136, 3140, 3156, -14965, 34632, 89739, -838, 990, -990, -381000, -477000, -3630001, 56646, 3237, 3288, 3239, 3196, 3237, 3214, 3250, 3269, 3199, 3136, 3140, 3156, -14935, 34411, 89817, -1067, 685, -762, -405000, -549000, -3690001, 56735, 3237, 3288, 3239, 3196, 3237, 3214, 3250, 3269, 3199, 3136, 3140, 3156, -14929, 34542, 89667, -1067, 914, -914, -405000, -477000, -3630001, 56824, 3237, 3292, 3239, 3196, 3237, 3214, 3250, 3270, 3199, 3136, 3140, 3156, -14941, 34662, 89751, -1219, 609, -838, -429000, -453000, -3690001, 56981, 3237, 3292, 3239, 3197, 3237, 3215, 3250, 3270, 3199, 3136, 3140, 3156, -14887, 34716, 89930, -1067, 457, -762, -333000, -357000, -3810001, 57070, 3237, 3292, 3239, 3197, 3237, 3216, 3250, 3270, 3199, 3136, 3140, 3156, -15025, 34758, 89763, -1143, 762, -838, -405000, -477000, -3630001, 57159, 3237, 3292, 3243, 3197, 3237, 3216, 3250, 3270, 3199, 3136, 3140, 3156, -14887, 34770, 90164, -1067, 838, -990, -381000, -429000, -3570001, 57248, 3237, 3292, 3243, 3197, 3237, 3216, 3250, 3270, 3199, 3136, 3140, 3156, -14995, 34584, 90008, -1143, 838, -838, -333000, -573000, -3630001, 57337, 3238, 3292, 3243, 3191, 3237, 3216, 3251, 3270, 3199, 3135, 3140, 3156, -15037, 34411, 89811, -990, 762, -762, -309000, -645000, -3510001, 57426, 3238, 3292, 3243, 3191, 3237, 3216, 3251, 3270, 3199, 3135, 3140, 3156, -15121, 34560, 90110, -1067, 990, -838, -405000, -573000, -3690001, 57599, 3238, 3292, 3243, 3191, 3235, 3213, 3251, 3270, 3199, 3135, 3141, 3157, -15073, 34321, 89673, -990, 838, -914, -357000, -453000, -3630001, 57688, 3238, 3292, 3241, 3191, 3235, 3213, 3251, 3270, 3199, 3135, 3141, 3157, -15085, 34632, 90044, -1143, 762, -762, -525000, -477000, -3690001, 57777, 3238, 3291, 3241, 3191, 3235, 3213, 3251, 3270, 3199, 3135, 3141, 3157, -14887, 34476, 89888, -1143, 762, -609, -357000, -453000, -3690001, 57866, 3234, 3291, 3241, 3193, 3235, 3213, 3251, 3270, 3199, 3135, 3141, 3157, -15061, 34470, 89876, -990, 762, -914, -453000, -525000, -3570001, 57955, 3234, 3291, 3241, 3193, 3235, 3213, 3251, 3270, 3199, 3135, 3141, 3157, -15109, 34465, 90146, -1143, 685, -762, -429000, -333000, -3570001, 58044, 3234, 3291, 3241, 3193, 3237, 3214, 3251, 3270, 3199, 3135, 3142, 3157, -15061, 34656, 89787, -1067, 838, -838, -453000, -357000, -3390001, 58219, 3234, 3291, 3244, 3193, 3237, 3214, 3251, 3270, 3199, 3135, 3142, 3157, -15270, 34536, 90164, -914, 609, -838, -357000, -573000, -3510001, 58308, 3234, 3295, 3244, 3193, 3237, 3214, 3251, 3271, 3199, 3135, 3142, 3157, -14851, 34399, 90277, -1143, 685, -609, -429000, -381000, -3570001, 58397, 3236, 3295, 3244, 3192, 3237, 3214, 3251, 3271, 3199, 3136, 3142, 3157, -14923, 34512, 89793, -1295, 609, -762, -501000, -429000, -3570001, 58486, 3236, 3295, 3244, 3192, 3232, 3214, 3251, 3271, 3199, 3136, 3142, 3157, -15150, 34638, 89697, -914, 914, -914, -381000, -429000, -3690001, 58575, 3236, 3295, 3244, 3192, 3232, 3213, 3251, 3271, 3199, 3136, 3142, 3157, -15228, 34554, 89996, -1143, 381, -609, -309000, -381000, -3690001, 58664, 3236, 3295, 3244, 3192, 3232, 3213, 3251, 3271, 3199, 3136, 3142, 3157, -14708, 34476, 90612, -1295, 838, -762, -309000, -597000, -3630001, 58839, 3236, 3295, 3244, 3193, 3232, 3213, 3251, 3271, 3199, 3136, 3142, 3157, -14845, 34626, 89984, -1295, 762, -685, -333000, -501000, -3630001, 58928, 3238, 3295, 3244, 3193, 3232, 3213, 3252, 3271, 3199, 3136, 3142, 3157, -15001, 34662, 89799, -1143, 685, -685, -333000, -381000, -3510001, 59017, 3238, 3295, 3244, 3193, 3234, 3214, 3252, 3271, 3199, 3136, 3142, 3157, -15204, 34614, 89631, -1067, 685, -762, -381000, -357000, -3570001, 59106, 3238, 3295, 3244, 3193, 3234, 3214, 3252, 3271, 3199, 3136, 3142, 3157, -14977, 34632, 90020, -990, 838, -914, -453000, -453000, -3630001, 59195, 3238, 3295, 3244, 3193, 3234, 3214, 3252, 3271, 3199, 3136, 3142, 3157, -14971, 34674, 89978, -1143, 685, -990, -477000, -549000, -3630001, 59284, 3238, 3295, 3246, 3193, 3234, 3214, 3252, 3271, 3199, 3136, 3142, 3157, -14965, 34536, 90193, -1371, 609, -609, -261000, -501000, -3510001, 59438, 3241, 3295, 3246, 3189, 3234, 3214, 3252, 3271, 3199, 3136, 3142, 3157, -14893, 34596, 89972, -1143, 838, -914, -141000, -453000, -3450001, 59527, 3241, 3295, 3246, 3189, 3238, 3215, 3252, 3271, 3199, 3136, 3142, 3157, -15156, 34614, 89823, -1143, 762, -990, -237000, -453000, -3810001, 59616, 3241, 3295, 3246, 3189, 3238, 3215, 3252, 3271, 3199, 3136, 3142, 3157, -15246, 34465, 89805, -762, 990, -914, -405000, -405000, -3690001, 59705, 3241, 3295, 3246, 3189, 3238, 3215, 3252, 3271, 3199, 3136, 3142, 3157, -14893, 34542, 90026, -1067, 685, -914, -549000, -501000, -3750001, 59794, 3241, 3289, 3246, 3189, 3238, 3215, 3252, 3271, 3200, 3136, 3142, 3157, -15055, 34470, 89882, -1295, 457, -685, -357000, -501000, -3630001, 59883, 3241, 3289, 3246, 3193, 3238, 3215, 3252, 3271, 3200, 3136, 3142, 3157, -15049, 34644, 90050, -914, 609, -914, -381000, -381000, -3750001, 60050, 3241, 3289, 3246, 3193, 3235, 3213, 3252, 3271, 3200, 3136, 3142, 3158, -15049, 34333, 90068, -1600, 533, -685, -309000, -525000, -3630001, 60139, 3241, 3289, 3246, 3193, 3235, 3213, 3252, 3271, 3200, 3136, 3142, 3158, -15091, 34614, 89691, -1143, 838, -762, -285000, -453000, -3570001, 60228, 3241, 3289, 3246, 3193, 3235, 3213, 3252, 3271, 3200, 3136, 3142, 3158, -15228, 34423, 89847, -1067, 762, -685, -549000, -453000, -3570001, 60317, 3241, 3293, 3245, 3193, 3235, 3213, 3252, 3271, 3200, 3136, 3142, 3158, -14744, 34333, 90014, -1219, 762, -685, -429000, -549000, -3630001, 60406, 3237, 3293, 3245, 3192, 3235, 3213, 3252, 3271, 3200, 3137, 3142, 3158, -15037, 34518, 89882, -1371, 762, -762, -309000, -501000, -3570001, 60495, 3237, 3293, 3245, 3192, 3235, 3213, 3252, 3271, 3200, 3137, 3142, 3158, -15013, 34572, 89918, -1295, 838, -762, -453000, -501000, -3630001, 60667, 3237, 3293, 3245, 3192, 3240, 3212, 3252, 3271, 3200, 3137, 3143, 3158, -15073, 34470, 89930, -914, 838, -838, -165000, -381000, -3510001, 60756, 3237, 3293, 3245, 3192, 3240, 3212, 3252, 3271, 3200, 3137, 3143, 3158, -15133, 34584, 90032, -1295, 685, -762, -309000, -453000, -3510001, 60845, 3237, 3295, 3245, 3192, 3240, 3212, 3252, 3272, 3200, 3137, 3143, 3158, -15061, 34387, 89972, -1067, 838, -685, -405000, -429000, -3570001, 60934, 3237, 3295, 3245, 3195, 3240, 3212, 3252, 3272, 3200, 3137, 3143, 3158, -15079, 34447, 90086, -1371, 457, -762, -621000, -477000, -3570001, 61023, 3237, 3295, 3245, 3195, 3240, 3212, 3252, 3272, 3200, 3137, 3143, 3158, -15294, 34889, 90038, -990, 838, -914, -333000, -429000, -3570001, 61112, 3237, 3295, 3245, 3195, 3236, 3215, 3252, 3272, 3200, 3137, 3144, 3158, -15007, 34805, 89924, -990, 838, -762, -333000, -597000, -3510001, 61284, 3237, 3294, 3245, 3195, 3236, 3215, 3252, 3272, 3200, 3137, 3144, 3158, -15252, 34608, 89595, -914, 990, -990, -261000, -381000, -3570001, 61373, 3237, 3294, 3245, 3193, 3236, 3215, 3252, 3272, 3200, 3137, 3144, 3158, -15121, 34758, 89302, -914, 762, -762, -405000, -477000, -3750001, 61462, 3238, 3294, 3245, 3193, 3236, 3215, 3253, 3272, 3200, 3137, 3144, 3158, -14654, 34195, 90295, -685, 1295, -838, -261000, -333000, -3690001, 61551, 3238, 3294, 3245, 3193, 3236, 3215, 3253, 3272, 3200, 3137, 3144, 3158, -15067, 34470, 90403, -1829, 0, -609, -381000, -477000, -3450001, 61640, 3238, 3294, 3245, 3193, 3231, 3215, 3253, 3272, 3200, 3137, 3144, 3158, -15324, 34901, 90032, -838, 838, -914, -357000, -405000, -3570001, 61729, 3238, 3294, 3245, 3193, 3231, 3215, 3253, 3272, 3200, 3137, 3144, 3158, -15336, 34620, 90038, -1371, 381, -685, -357000, -429000, -3810001, 61888, 3238, 3294, 3241, 3199, 3231, 3215, 3253, 3272, 3200, 3137, 3144, 3158, -14995, 34578, 89368, -838, 990, -990, -333000, -429000, -3690001, 61977, 3241, 3294, 3241, 3199, 3231, 3215, 3253, 3272, 3200, 3137, 3144, 3158, -14845, 34602, 89763, -1067, -304, -381, -333000, -549000, -3690001, 62066, 3241, 3294, 3241, 3199, 3231, 3215, 3253, 3272, 3200, 3137, 3144, 3158, -14887, 34518, 89936, -381, 1524, -1143, -381000, -453000, -3570001, 62155, 3241, 3294, 3241, 3199, 3239, 3217, 3253, 3272, 3200, 3137, 3144, 3158, -14929, 34285, 90223, -1676, 914, -685, -453000, -405000, -3750001, 62244, 3241, 3294, 3241, 3199, 3239, 3217, 3253, 3272, 3200, 3137, 3144, 3158, -15180, 34704, 90044, -1600, 685, -762, -333000, -501000, -3630001, 62333, 3241, 3292, 3244, 3199, 3239, 3217, 3253, 3272, 3201, 3137, 3144, 3158, -14816, 34536, 90062, -1067, 457, -685, -357000, -597000, -3630001, 62508, 3238, 3292, 3244, 3189, 3239, 3217, 3252, 3272, 3201, 3137, 3144, 3158, -15079, 34668, 89607, -1600, 609, -533, -381000, -405000, -3690001, 62597, 3238, 3292, 3244, 3189, 3239, 3216, 3252, 3272, 3201, 3137, 3144, 3158, -14875, 34357, 90295, -1143, 762, -838, -333000, -501000, -3450001, 62686, 3238, 3292, 3244, 3189, 3239, 3216, 3252, 3272, 3201, 3137, 3144, 3158, -15144, 34710, 89434, -1067, 762, -762, -333000, -381000, -3810001, 62775, 3238, 3300, 3244, 3189, 3239, 3216, 3252, 3272, 3201, 3137, 3144, 3158, -15091, 34632, 89811, -762, 914, -914, -309000, -525000, -3630001, 62864, 3238, 3300, 3243, 3192, 3239, 3216, 3252, 3272, 3201, 3137, 3144, 3158, -15043, 34303, 89733, -1295, 762, -762, -381000, -597000, -3630001, 62953, 3238, 3300, 3243, 3192, 3239, 3216, 3252, 3272, 3201, 3137, 3144, 3158, -14738, 34447, 90241, -1905, 152, -381, -501000, -597000, -3570001, 63124, 3242, 3300, 3243, 3192, 3239, 3217, 3253, 3272, 3201, 3137, 3144, 3159, -15246, 34991, 89829, -1143, 685, -533, -333000, -357000, -3570001, 63213, 3242, 3300, 3243, 3192, 3234, 3217, 3253, 3272, 3201, 3137, 3144, 3159, -15198, 34429, 90409, -762, 1448, -1295, -453000, -453000, -3630001, 63302, 3242, 3294, 3243, 3192, 3234, 3217, 3253, 3272, 3201, 3137, 3144, 3159, -15025, 34435, 89147, -914, 990, -685, -429000, -453000, -3690001, 63391, 3242, 3294, 3244, 3196, 3234, 3217, 3253, 3272, 3201, 3137, 3144, 3159, -14481, 34399, 90397, -2134, -76, -533, -405000, -501000, -3570001, 63480, 3242, 3294, 3244, 3196, 3234, 3217, 3254, 3272, 3201, 3137, 3144, 3159, -15037, 34638, 89416, -1067, 304, -609, -333000, -525000, -3450001, 63569, 3242, 3294, 3244, 3196, 3234, 3217, 3254, 3272, 3201, 3137, 3144, 3159, -15342, 34847, 90325, -533, 762, -914, -453000, -597000, -3690001, 63723, 3242, 3294, 3244, 3196, 3234, 3216, 3254, 3272, 3201, 3137, 3145, 3159, -15761, 34692, 91025, -1295, 990, -1067, -333000, -405000, -3630001, 63812, 3242, 3292, 3244, 3196, 3234, 3216, 3254, 3272, 3201, 3137, 3145, 3159, -15264, 34542, 89661, -914, 304, -990, -381000, -261000, -3630001, 63901, 3242, 3292, 3245, 3196, 3234, 3216, 3254, 3272, 3201, 3138, 3145, 3159, -14929, 34351, 89697, -838, 914, -609, -357000, -405000, -3450001, 63990, 3239, 3292, 3245, 3196, 3234, 3216, 3254, 3272, 3201, 3138, 3145, 3159, -14516, 34369, 90361, -1524, 457, -152, -213000, -357000, -3750001, 64079, 3239, 3292, 3245, 3196, 3234, 3216, 3254, 3272, 3201, 3138, 3145, 3159, -15874, 34566, 89547, -1143, 838, -914, -357000, -453000, -3690001, 64168, 3239, 3292, 3245, 3196, 3235, 3216, 3254, 3272, 3201, 3138, 3145, 3159, -14564, 34572, 90415, -1067, 1067, -762, -477000, -405000, -3510001, 64338, 3239, 3292, 3245, 3196, 3235, 3216, 3254, 3273, 3201, 3138, 3145, 3159, -15336, 34817, 89356, -838, 914, -914, -285000, -549000, -3570001, 64427, 3239, 3292, 3245, 3196, 3235, 3216, 3254, 3273, 3201, 3139, 3145, 3159, -15037, 34608, 90032, -533, 838, -1067, -237000, -453000, -3330001, 64516, 3238, 3292, 3245, 3196, 3235, 3216, 3254, 3273, 3201, 3139, 3145, 3159, -15079, 34213, 89841, -1371, 914, -609, -261000, -549000, -3630001, 64605, 3238, 3292, 3245, 3196, 3235, 3216, 3254, 3273, 3201, 3139, 3145, 3159, -15001, 34608, 89805, -1524, 685, -762, -405000, -477000, -3690001, 64694, 3238, 3292, 3245, 3196, 3236, 3213, 3254, 3273, 3201, 3139, 3145, 3160, -15156, 34614, 89697, -1143, 762, -762, -285000, -357000, -3570001, 64783, 3238, 3298, 3245, 3196, 3236, 3213, 3254, 3274, 3201, 3139, 3145, 3160, -14959, 34656, 89906, -762, 685, -762, -525000, -381000, -3510001, 64955, 3238, 3298, 3244, 3195, 3236, 3213, 3254, 3274, 3201, 3139, 3145, 3160, -15414, 34626, 89625, -990, 1295, -1143, -333000, -405000, -3690001, 65044, 3238, 3298, 3244, 3195, 3236, 3213, 3254, 3274, 3201, 3139, 3145, 3160, -15150, 34662, 89924, -533, 685, -1219, -237000, -453000, -3630001, 65133, 3238, 3298, 3244, 3195, 3236, 3217, 3254, 3274, 3201, 3139, 3145, 3160, -15432, 34710, 90247, -990, 1219, -762, -333000, -453000, -3510001, 65222, 3238, 3298, 3244, 3195, 3237, 3217, 3254, 3274, 3201, 3139, 3145, 3160, -14947, 34201, 90205, -1371, 533, -990, -429000, -261000, -3510001, 65311, 3238, 3297, 3244, 3195, 3237, 3217, 3254, 3274, 3201, 3139, 3145, 3160, -15300, 34716, 89171, -762, 1143, -990, -477000, -405000, -3750001, 65400, 3238, 3297, 3244, 3191, 3237, 3217, 3254, 3274, 3201, 3139, 3145, 3160, -15324, 34776, 90259, -762, 0, -914, -333000, -501000, -3690001, 65573, 3235, 3297, 3250, 3191, 3237, 3217, 3254, 3274, 3202, 3139, 3145, 3160, -14720, 34267, 90618, -1676, 533, -1067, -381000, -501000, -3630001, 65662, 3235, 3297, 3250, 3191, 3237, 3211, 3254, 3274, 3202, 3139, 3145, 3160, -15007, 34351, 89314, -685, 914, -1143, -237000, -429000, -3630001, 65751, 3235, 3297, 3250, 3191, 3238, 3211, 3254, 3274, 3202, 3139, 3145, 3160, -15360, 34782, 90038, -762, 381, -762, -381000, -525000, -3690001, 65840, 3235, 3291, 3250, 3191, 3238, 3211, 3254, 3274, 3202, 3139, 3145, 3160, -14786, 34512, 89882, -304, 838, -990, -429000, -477000, -3510001, 65929, 3235, 3291, 3250, 3197, 3238, 3211, 3254, 3274, 3202, 3139, 3145, 3160, -14732, 34339, 90953, -1981, 533, -533, -333000, -429000, -3570001, 66018, 3235, 3291, 3250, 3197, 3238, 3211, 3254, 3274, 3202, 3139, 3145, 3160, -15180, 34823, 89793, -1067, 914, -1067, -357000, -429000, -3630001, 66177, 3241, 3291, 3250, 3197, 3238, 3217, 3254, 3274, 3202, 3139, 3145, 3161, -15264, 34423, 89835, -990, 838, -838, -381000, -525000, -3510001, 66266, 3241, 3291, 3250, 3197, 3239, 3217, 3254, 3274, 3202, 3139, 3145, 3161, -15276, 34465, 89775, -1219, 914, -914, -381000, -357000, -3570001, 66355, 3241, 3295, 3250, 3197, 3239, 3217, 3254, 3274, 3202, 3139, 3145, 3161, -15174, 34560, 89721, -1295, 762, -838, -381000, -477000, -3630001, 66444, 3241, 3295, 3250, 3194, 3239, 3217, 3254, 3274, 3202, 3139, 3145, 3161, -15037, 34506, 90164, -1143, 685, -762, -261000, -453000, -3630001, 66533, 3241, 3295, 3244, 3194, 3239, 3217, 3254, 3274, 3202, 3139, 3145, 3161, -15031, 34387, 90259, -990, 762, -838, -381000, -525000, -3630001, 66622, 3241, 3295, 3244, 3194, 3239, 3217, 3255, 3274, 3202, 3139, 3145, 3161, -15180, 34417, 90391, -1295, 381, -838, -357000, -453000, -3630001, 66797, 3241, 3292, 3244, 3194, 3236, 3216, 3255, 3274, 3202, 3139, 3146, 3161, -15001, 34459, 89643, -1067, 990, -762, -261000, -597000, -3630001, 66886, 3241, 3292, 3244, 3192, 3236, 3216, 3255, 3274, 3202, 3139, 3146, 3161, -15222, 34548, 89876, -1219, 838, -914, -285000, -621000, -3630001, 66975, 3241, 3292, 3244, 3192, 3236, 3216, 3255, 3274, 3202, 3139, 3146, 3161, -14953, 34536, 89990, -1295, 533, -609, -285000, -381000, -3630001, 67064, 3242, 3292, 3248, 3192, 3236, 3216, 3255, 3274, 3202, 3139, 3146, 3161, -15097, 34602, 89685, -1219, 457, -762, -357000, -501000, -3690001, 67153, 3242, 3292, 3248, 3192, 3236, 3215, 3255, 3274, 3202, 3139, 3146, 3161, -14947, 34536, 90116, -762, 1143, -990, -405000, -549000, -3630001, 67242, 3242, 3292, 3248, 3192, 3236, 3215, 3255, 3274, 3202, 3139, 3146, 3161, -15156, 34423, 90116, -1219, 685, -838, -285000, -357000, -3570001, 67409, 3242, 3291, 3248, 3191, 3237, 3215, 3255, 3274, 3202, 3139, 3147, 3161, -14947, 34650, 89841, -1067, 609, -762, -309000, -381000, -3570001, 67498, 3242, 3291, 3248, 3191, 3237, 3215, 3255, 3274, 3202, 3139, 3147, 3161, -15174, 34441, 89870, -1143, 762, -838, -333000, -333000, -3630001, 67587, 3240, 3291, 3246, 3191, 3237, 3215, 3255, 3274, 3203, 3139, 3147, 3161, -14941, 34357, 90008, -1295, 762, -762, -477000, -501000, -3510001, 67676, 3240, 3291, 3246, 3191, 3237, 3215, 3255, 3274, 3203, 3139, 3147, 3161, -15103, 34542, 89697, -1067, 914, -838, -357000, -381000, -3630001, 67765, 3240, 3291, 3246, 3191, 3237, 3215, 3255, 3274, 3203, 3139, 3147, 3161, -15252, 34506, 89978, -1067, 762, -685, -285000, -477000, -3750001, 67854, 3240, 3293, 3246, 3191, 3233, 3215, 3255, 3274, 3203, 3139, 3147, 3161, -14947, 34512, 90014, -1067, 609, -762, -333000, -477000, -3630001, 68022, 3240, 3293, 3246, 3193, 3233, 3215, 3255, 3274, 3203, 3139, 3147, 3161, -15055, 34387, 90235, -1448, 457, -533, -501000, -501000, -3630001, 68111, 3236, 3293, 3245, 3193, 3233, 3215, 3255, 3274, 3203, 3139, 3147, 3161, -15138, 34566, 89805, -990, 838, -914, -309000, -477000, -3510001, 68200, 3236, 3293, 3245, 3193, 3233, 3215, 3255, 3274, 3203, 3139, 3147, 3161, -15264, 34524, 89733, -1067, 762, -838, -237000, -429000, -3630001, 68289, 3236, 3293, 3245, 3193, 3233, 3215, 3255, 3274, 3203, 3139, 3147, 3161, -15001, 34500, 89739, -990, 914, -990, -429000, -525000, -3630001, 68378, 3236, 3294, 3245, 3193, 3234, 3215, 3255, 3274, 3203, 3139, 3147, 3161, -15210, 34363, 89978, -1067, 990, -914, -309000, -405000, -3690001, 68467, 3236, 3294, 3245, 3192, 3234, 3215, 3255, 3274, 3203, 3139, 3147, 3161, -14128, 34524, 89553, -1371, 457, -304, -285000, -501000, -3630001, 68624, 3242, 3294, 3249, 3192, 3234, 3215, 3255, 3274, 3203, 3139, 3147, 3161, -14481, 34734, 90648, -1143, 381, -533, -405000, -405000, -3510001, 68713, 3242, 3294, 3249, 3192, 3234, 3217, 3255, 3274, 3203, 3139, 3147, 3161, -15497, 34560, 90475, -1524, 304, -762, -357000, -453000, -3630001, 68802, 3242, 3293, 3249, 3192, 3234, 3217, 3255, 3274, 3203, 3139, 3147, 3161, -14923, 34488, 89589, -533, 1981, -1371, -429000, -429000, -3570001, 68891, 3242, 3293, 3249, 3192, 3232, 3217, 3255, 3274, 3203, 3139, 3147, 3161, -15354, 34680, 90044, -1676, 152, -685, -333000, -477000, -3690001, 68980, 3242, 3293, 3249, 3193, 3232, 3217, 3255, 3274, 3203, 3139, 3147, 3161, -14959, 34722, 89392, -381, 1295, -1067, -261000, -453000, -3450001, 69069, 3242, 3293, 3249, 3193, 3232, 3217, 3255, 3274, 3203, 3139, 3147, 3161, -14911, 34488, 90816, -685, 762, -1067, -357000, -429000, -3570001, 69241, 3242, 3293, 3239, 3193, 3232, 3214, 3255, 3274, 3203, 3139, 3147, 3161, -15838, 34805, 89494, -381, 1295, -1371, -453000, -549000, -3630001, 69330, 3242, 3289, 3239, 3193, 3232, 3214, 3255, 3273, 3203, 3139, 3147, 3161, -15204, 34746, 89230, -533, 1219, -1067, -357000, -597000, -3630001, 69419, 3242, 3289, 3239, 3192, 3235, 3214, 3255, 3273, 3203, 3139, 3147, 3161, -14893, 34118, 91013, -457, 1753, -1448, -405000, -477000, -3630001, 69508, 3242, 3289, 3239, 3192, 3235, 3214, 3255, 3273, 3203, 3139, 3147, 3161, -14205, 34303, 90576, -2362, -838, 304, -141000, -621000, -3570001, 69597, 3242, 3289, 3248, 3192, 3235, 3214, 3255, 3273, 3202, 3139, 3147, 3161, -16413, 35039, 88112, -152, 1753, -1600, -429000, -477000, -3630001, 69686, 3236, 3289, 3248, 3192, 3235, 3214, 3255, 3273, 3202, 3139, 3147, 3161, -15246, 34321, 90241, -381, 1524, -1143, -261000, -621000, -3690001, 69861, 3236, 3292, 3248, 3192, 3234, 3214, 3255, 3273, 3202, 3139, 3147, 3161, -14672, 34345, 89410, -2286, 76, -228, -381000, -501000, -3630001, 69950, 3236, 3292, 3248, 3193, 3234, 3214, 3255, 3273, 3202, 3139, 3147, 3161, -14702, 35015, 89601, -1067, -228, -228, -285000, -501000, -3510001, 70039, 3236, 3292, 3248, 3193, 3234, 3214, 3255, 3273, 3202, 3139, 3147, 3161, -15611, 34961, 89667, -533, 381, -762, -189000, -429000, -3630001, 70128, 3239, 3292, 3242, 3193, 3234, 3214, 3255, 3273, 3202, 3139, 3147, 3161, -15133, 34602, 90050, 152, 1981, -1524, -309000, -573000, -3630001, 70217, 3239, 3292, 3242, 3193, 3234, 3214, 3255, 3273, 3202, 3139, 3147, 3161, -14804, 34315, 90475, -1753, 1143, -762, -309000, -525000, -3690001, 70306, 3239, 3290, 3242, 3193, 3234, 3214, 3255, 3274, 3202, 3139, 3147, 3161, -14947, 34560, 89745, -1676, 609, -762, -333000, -573000, -3570001, 70483, 3239, 3290, 3242, 3192, 3237, 3214, 3255, 3274, 3202, 3139, 3147, 3161, -14893, 34710, 90134, -685, 457, -685, -309000, -405000, -3630001, 70572, 3239, 3290, 3242, 3192, 3237, 3214, 3255, 3274, 3202, 3139, 3147, 3161, -15031, 34393, 90014, -1067, 990, -914, -381000, -429000, -3630001, 70661, 3239, 3290, 3243, 3192, 3237, 3214, 3255, 3274, 3203, 3139, 3147, 3161, -15049, 34620, 89948, -1829, 609, -457, -405000, -381000, -3690001, 70750, 3239, 3290, 3243, 3192, 3237, 3217, 3255, 3274, 3203, 3139, 3147, 3161, -15288, 34943, 88973, -533, 1295, -1143, -309000, -525000, -3570001, 70839, 3239, 3295, 3243, 3192, 3237, 3217, 3255, 3274, 3203, 3139, 3147, 3161, -14576, 34512, 90505, -762, 762, -685, -261000, -453000, -3570001, 70928, 3239, 3295, 3243, 3193, 3239, 3217, 3255, 3274, 3203, 3139, 3147, 3161, -14995, 34387, 90188, -1067, 762, -1067, -333000, -501000, -3570001, 71082, 3239, 3295, 3243, 3193, 3239, 3217, 3255, 3274, 3203, 3139, 3147, 3161, -15204, 34393, 90810, -2210, -304, -381, -333000, -333000, -3750001, 71171, 3238, 3295, 3242, 3193, 3239, 3217, 3255, 3274, 3204, 3139, 3147, 3161, -15539, 34686, 89440, -685, 1371, -1295, -429000, -477000, -3570001, 71260, 3238, 3295, 3242, 3193, 3239, 3214, 3255, 3274, 3204, 3139, 3147, 3161, -15138, 34524, 89715, -1219, 533, -685, -237000, -453000, -3510001, 71349, 3238, 3294, 3242, 3193, 3239, 3214, 3255, 3274, 3204, 3139, 3147, 3161, -15198, 34488, 89799, -76, 1524, -1295, -381000, -453000, -3570001, 71438, 3238, 3294, 3242, 3182, 3234, 3214, 3255, 3274, 3204, 3137, 3147, 3161, -14899, 34662, 89972, -1295, 304, -609, -405000, -381000, -3690001, 71527, 3238, 3294, 3242, 3182, 3234, 3214, 3255, 3274, 3204, 3137, 3147, 3161, -15210, 34399, 90080, -1371, 533, -762, -477000, -381000, -3690001, 71694, 3241, 3294, 3246, 3182, 3234, 3214, 3256, 3274, 3204, 3137, 3147, 3161, -14995, 34710, 90313, -914, 838, -762, -453000, -453000, -3690001, 71783, 3241, 3294, 3246, 3182, 3234, 3215, 3256, 3274, 3204, 3137, 3147, 3161, -14516, 34255, 90074, -914, 609, -762, -285000, -381000, -3630001, 71872, 3241, 3292, 3246, 3182, 3234, 3215, 3256, 3274, 3204, 3137, 3147, 3161, -14977, 34345, 90217, -1219, 685, -838, -357000, -477000, -3690001, 71961, 3241, 3292, 3246, 3185, 3235, 3215, 3256, 3274, 3204, 3136, 3147, 3161, -15246, 34459, 89559, -1067, 609, -762, -453000, -477000, -3570001, 72050, 3241, 3292, 3246, 3185, 3235, 3215, 3256, 3274, 3204, 3136, 3147, 3161, -15282, 34668, 90086, -1143, 228, -609, -333000, -501000, -3630001, 72139, 3241, 3292, 3246, 3185, 3235, 3215, 3256, 3274, 3204, 3136, 3147, 3161, -14863, 34548, 90439, -1067, 838, -838, -405000, -525000, -3690001, 72310, 3241, 3290, 3245, 3185, 3235, 3214, 3256, 3274, 3204, 3136, 3147, 3161, -14995, 34524, 89823, -914, 838, -838, -381000, -453000, -3570001, 72399, 3241, 3290, 3245, 3185, 3235, 3214, 3256, 3274, 3204, 3136, 3147, 3161, -15228, 34626, 89619, -685, 762, -838, -381000, -501000, -3570001, 72488, 3241, 3290, 3245, 3186, 3236, 3214, 3256, 3274, 3204, 3136, 3147, 3161, -15150, 34470, 90044, -1371, 533, -685, -309000, -405000, -3630001, 72577, 3241, 3290, 3245, 3186, 3236, 3214, 3256, 3274, 3204, 3136, 3147, 3161, -15127, 34638, 90259, -1448, 609, -762, -309000, -453000, -3690001, 72666, 3241, 3290, 3245, 3186, 3236, 3214, 3256, 3274, 3204, 3136, 3147, 3161, -15115, 34608, 90002, -1067, 838, -914, -357000, -573000, -3630001, 72755, 3239, 3290, 3249, 3186, 3236, 3210, 3256, 3274, 3204, 3136, 3147, 3161, -15366, 34656, 90146, -1219, 381, -685, -309000, -477000, -3690001, 72927, 3239, 3292, 3249, 3187, 3236, 3210, 3256, 3274, 3204, 3136, 3147, 3161, -15055, 34357, 90295, -1981, -228, -228, -501000, -477000, -3570001, 73016, 3239, 3292, 3249, 3187, 3233, 3210, 3256, 3274, 3204, 3136, 3147, 3161, -15138, 34554, 89679, -1371, 609, -762, -285000, -501000, -3630001, 73105, 3239, 3292, 3249, 3187, 3233, 3210, 3256, 3274, 3204, 3136, 3147, 3161, -15055, 34399, 89488, -381, 1448, -1219, -357000, -405000, -3510001, 73194, 3239, 3292, 3249, 3187, 3233, 3210, 3256, 3274, 3204, 3136, 3147, 3161, -15168, 34626, 89601, -1067, 685, -1067, -357000, -525000, -3630001, 73283, 3239, 3292, 3245, 3187, 3233, 3214, 3256, 3274, 3204, 3136, 3147, 3162, -14810, 34512, 90193, -609, 1295, -1143, -189000, -429000, -3750001, 73372, 3239, 3291, 3245, 3187, 3233, 3214, 3256, 3274, 3204, 3136, 3147, 3162, -14959, 34512, 90373, -1448, 762, -838, -405000, -477000, -3690001, 73531, 3239, 3291, 3245, 3188, 3233, 3214, 3256, 3274, 3204, 3136, 3147, 3162, -15294, 34967, 89990, -762, 762, -838, -261000, -549000, -3630001, 73620, 3239, 3291, 3245, 3188, 3233, 3214, 3256, 3274, 3204, 3136, 3147, 3162, -15539, 34441, 90062, -685, 685, -762, -333000, -501000, -3690001, 73709, 3236, 3291, 3245, 3188, 3233, 3214, 3256, 3274, 3204, 3136, 3147, 3162, -15204, 34243, 89930, -609, 1600, -1219, -429000, -477000, -3630001, 73798, 3236, 3291, 3244, 3188, 3233, 3213, 3256, 3274, 3204, 3136, 3147, 3162, -14780, 34638, 89966, -2439, 152, -304, -261000, -525000, -3630001, 73887, 3236, 3292, 3244, 3188, 3233, 3213, 3256, 3274, 3204, 3136, 3147, 3162, -14833, 34662, 90259, -609, 685, -838, -189000, -405000, -3630001, 73976, 3236, 3292, 3244, 3181, 3233, 3213, 3256, 3274, 3204, 3136, 3147, 3162, -15103, 34447, 89900, -457, 990, -990, -453000, -453000, -3690001, 74151, 3236, 3292, 3244, 3181, 3232, 3213, 3256, 3274, 3204, 3136, 3147, 3162, -15312, 34704, 89518, -1371, 685, -762, -309000, -477000, -3570001, 74240, 3237, 3292, 3244, 3181, 3232, 3213, 3257, 3274, 3204, 3136, 3147, 3162, -15121, 34572, 89272, -457, 914, -1067, -333000, -549000, -3570001, 74329, 3237, 3291, 3244, 3181, 3232, 3216, 3257, 3274, 3204, 3136, 3147, 3162, -15007, 34470, 89781, -609, 1067, -1067, -405000, -525000, -3690001, 74418, 3237, 3291, 3244, 3181, 3232, 3216, 3257, 3274, 3204, 3135, 3147, 3162, -14881, 34506, 89739, -1219, 838, -914, -333000, -477000, -3750001, 74507, 3237, 3291, 3244, 3184, 3232, 3216, 3257, 3274, 3204, 3135, 3147, 3162, -14881, 34530, 89260, -685, 1067, -990, -357000, -573000, -3510001, 74596, 3237, 3291, 3244, 3184, 3235, 3216, 3257, 3274, 3204, 3135, 3147, 3162, -14887, 34512, 89894, -990, 304, -609, -333000, -429000, -3570001, 74769, 3239, 3291, 3244, 3184, 3235, 3216, 3257, 3274, 3204, 3135, 3147, 3162, -15073, 34369, 89960, -762, 1371, -1143, -381000, -429000, -3690001, 74858, 3239, 3291, 3244, 3184, 3235, 3217, 3257, 3274, 3204, 3135, 3147, 3162, -14247, 34189, 91198, -2591, -152, 76, -237000, -429000, -3570001, 74947, 3239, 3291, 3244, 3187, 3235, 3217, 3257, 3274, 3204, 3135, 3147, 3162, -15168, 34716, 89565, -152, 1371, -1295, -309000, -501000, -3630001, 75036, 3239, 3291, 3244, 3187, 3238, 3217, 3257, 3274, 3204, 3135, 3147, 3162, -15258, 34668, 89631, -533, 533, -914, -405000, -405000, -3570001, 75125, 3239, 3291, 3244, 3187, 3238, 3217, 3257, 3274, 3204, 3135, 3147, 3162, -15216, 34865, 90325, -838, 914, -990, -285000, -453000, -3630001, 75214, 3239, 3291, 3244, 3187, 3238, 3217, 3257, 3274, 3204, 3135, 3147, 3162, -15372, 34554, 90152, -1524, 1067, -762, -477000, -549000, -3750001, 75368, 3242, 3293, 3243, 3187, 3238, 3218, 3257, 3274, 3204, 3135, 3147, 3162, -14726, 34470, 89936, -914, 457, -685, -501000, -573000, -3510001, 75457, 3242, 3293, 3243, 3191, 3238, 3218, 3257, 3274, 3204, 3136, 3147, 3162, -14989, 34656, 90080, -1219, 914, -762, -477000, -453000, -3630001, 75546, 3242, 3293, 3243, 3191, 3237, 3218, 3257, 3274, 3204, 3136, 3147, 3162, -15168, 34554, 89900, -1295, 762, -685, -477000, -477000, -3810001, 75635, 3242, 3293, 3243, 3191, 3237, 3218, 3257, 3274, 3204, 3136, 3147, 3162, -14839, 34608, 90008, -990, 1067, -990, -189000, -453000, -3510001, 75724, 3242, 3293, 3243, 3191, 3237, 3218, 3257, 3274, 3204, 3136, 3147, 3162, -14851, 34506, 89709, -990, 990, -838, -453000, -477000, -3630001, 75813, 3242, 3293, 3243, 3191, 3237, 3215, 3257, 3274, 3204, 3136, 3147, 3162, -14702, 34680, 90056, -914, 762, -990, -429000, -453000, -3450001, 75981, 3242, 3294, 3246, 3187, 3237, 3215, 3257, 3274, 3204, 3136, 3147, 3162, -15043, 34740, 89488, -1143, 914, -762, -381000, -525000, -3570001, 76070, 3242, 3294, 3246, 3187, 3235, 3215, 3257, 3274, 3204, 3136, 3147, 3162, -15270, 34764, 90193, -1448, 609, -457, -477000, -645000, -3510001, 76159, 3242, 3294, 3246, 3187, 3235, 3215, 3257, 3274, 3204, 3136, 3147, 3162, -15109, 34734, 89870, -1067, 838, -914, -429000, -429000, -3510001, 76248, 3242, 3294, 3246, 3187, 3235, 3215, 3257, 3274, 3204, 3136, 3147, 3162, -15312, 34644, 89458, -1143, 1219, -838, -357000, -453000, -3750001, 76337, 3240, 3292, 3246, 3187, 3235, 3214, 3257, 3274, 3204, 3136, 3147, 3162, -14678, 34758, 90499, -1600, -533, -228, -213000, -405000, -3570001, 76426, 3240, 3292, 3243, 3187, 3235, 3214, 3257, 3274, 3205, 3136, 3147, 3162, -16066, 34512, 89966, -609, 1295, -1676, -309000, -501000, -3630001, 76598, 3240, 3292, 3243, 3186, 3233, 3214, 3257, 3274, 3205, 3136, 3146, 3162, -15473, 34704, 90475, -1676, 76, -533, -357000, -429000, -3750001, 76687, 3240, 3292, 3243, 3186, 3233, 3214, 3257, 3274, 3205, 3136, 3146, 3162, -15264, 34321, 89236, -1600, 838, -533, -381000, -453000, -3690001, 76776, 3237, 3292, 3243, 3186, 3233, 3214, 3257, 3274, 3205, 3136, 3146, 3162, -14666, 34506, 90164, -1143, 1067, -990, -381000, -477000, -3750001, 76865, 3237, 3295, 3243, 3186, 3233, 3215, 3257, 3274, 3205, 3136, 3146, 3162, -14313, 34518, 89189, 0, 1067, -1143, -213000, -525000, -3630001, 76954, 3237, 3295, 3243, 3192, 3233, 3215, 3257, 3274, 3205, 3137, 3146, 3162, -15689, 34746, 90433, -838, 533, -914, -381000, -477000, -3450001, 77043, 3237, 3295, 3243, 3192, 3233, 3215, 3257, 3274, 3205, 3137, 3146, 3162, -15121, 34094, 90433, -1448, 1295, -609, -333000, -501000, -3690001, 77216, 3237, 3295, 3243, 3192, 3231, 3215, 3257, 3274, 3205, 3137, 3145, 3162, -15294, 34518, 89434, -762, 457, -609, -381000, -669000, -3750001, 77305, 3239, 3295, 3243, 3192, 3231, 3215, 3256, 3274, 3205, 3137, 3145, 3162, -15336, 34375, 90241, -228, 533, -1143, -525000, -525000, -3510001, 77394, 3239, 3293, 3246, 3192, 3231, 3213, 3256, 3274, 3205, 3137, 3145, 3162, -15007, 34363, 90050, -1448, 838, -838, -357000, -477000, -3810001, 77483, 3239, 3293, 3246, 3187, 3231, 3213, 3256, 3274, 3205, 3137, 3145, 3162, -15707, 34787, 89733, -1524, 762, -914, -453000, -357000, -3750001, 77572, 3239, 3293, 3246, 3187, 3231, 3213, 3256, 3274, 3205, 3137, 3145, 3162, -15138, 34578, 88997, -838, 838, -990, -453000, -405000, -3630001, 77661, 3239, 3293, 3246, 3187, 3227, 3213, 3256, 3274, 3205, 3137, 3145, 3162, -14798, 34590, 90493, -762, 381, -838, -309000, -501000, -3630001, 77821, 3231, 3293, 3246, 3187, 3227, 3213, 3255, 3274, 3205, 3137, 3145, 3162, -15336, 34560, 89906, -1219, 1067, -838, -453000, -453000, -3570001, 77910, 3231, 3290, 3239, 3187, 3227, 3208, 3255, 3274, 3205, 3137, 3145, 3162, -15420, 34650, 88985, -533, 762, -1219, -261000, -429000, -3810001, 77999, 3231, 3290, 3239, 3186, 3227, 3208, 3255, 3274, 3205, 3137, 3145, 3162, -15162, 34668, 90349, 76, 1524, -1448, -237000, -405000, -3510001, 78088, 3231, 3290, 3239, 3186, 3227, 3208, 3255, 3274, 3205, 3137, 3145, 3162, -15216, 34255, 90247, -914, 838, -838, -477000, -477000, -3690001, 78177, 3231, 3290, 3239, 3186, 3234, 3208, 3255, 3274, 3205, 3137, 3144, 3162, -14684, 34303, 90451, -2286, 0, -228, -333000, -501000, -3570001, 78266, 3231, 3290, 3239, 3186, 3234, 3208, 3255, 3274, 3205, 3137, 3144, 3162, -15121, 34524, 89685, -990, 762, -990, -309000, -597000, -3630001, 78443, 3240, 3292, 3245, 3189, 3234, 3208, 3255, 3275, 3205, 3137, 3144, 3161, -15037, 34297, 89942, -381, 1219, -1295, -381000, -501000, -3690001, 78532, 3240, 3292, 3245, 3189, 3234, 3208, 3255, 3275, 3205, 3137, 3144, 3161, -14989, 34309, 90642, -1371, 685, -685, -381000, -525000, -3510001, 78621, 3240, 3292, 3245, 3189, 3234, 3208, 3255, 3275, 3205, 3137, 3144, 3161, -15025, 34429, 89703, -914, 838, -990, -261000, -501000, -3570001, 78710, 3240, 3292, 3245, 3189, 3225, 3208, 3255, 3275, 3205, 3137, 3143, 3161, -14977, 34459, 90445, -1067, 381, -533, -429000, -333000, -3630001, 78799, 3240, 3292, 3245, 3189, 3225, 3208, 3255, 3275, 3205, 3137, 3143, 3161, -15055, 34267, 89930, -990, 914, -914, -309000, -501000, -3630001, 78888, 3234, 3292, 3245, 3189, 3225, 3208, 3254, 3275, 3205, 3137, 3143, 3161, -15097, 34506, 90032, -1371, 533, -457, -429000, -573000, -3570001, 79055, 3234, 3292, 3248, 3189, 3225, 3208, 3254, 3275, 3205, 3136, 3143, 3161, -15503, 34662, 89745, -914, 762, -914, -333000, -357000, -3570001, 79144, 3234, 3292, 3248, 3189, 3225, 3208, 3254, 3275, 3205, 3136, 3143, 3161, -14941, 34590, 89984, -990, 990, -914, -357000, -333000, -3510001, 79233, 3234, 3292, 3248, 3189, 3228, 3208, 3254, 3275, 3205, 3136, 3142, 3161, -14672, 34668, 90738, -1219, 457, -533, -285000, -525000, -3690001, 79322, 3233, 3292, 3248, 3189, 3228, 3208, 3254, 3275, 3205, 3136, 3142, 3161, -15749, 34429, 89781, -1067, 1219, -1143, -165000, -573000, -3630001, 79411, 3233, 3292, 3248, 3189, 3228, 3210, 3254, 3275, 3205, 3136, 3142, 3161, -15396, 34369, 89894, -1219, 838, -1143, -405000, -525000, -3690001, 79500, 3233, 3292, 3247, 3188, 3228, 3210, 3254, 3275, 3205, 3135, 3142, 3161, -14953, 34877, 89775, -1219, 1067, -990, -357000, -453000, -3630001, 79667, 3233, 3292, 3247, 3188, 3228, 3210, 3254, 3275, 3205, 3135, 3142, 3161, -15049, 34249, 90134, -228, 2591, -1600, -357000, -525000, -3570001, 79756, 3233, 3292, 3247, 3188, 3229, 3210, 3254, 3275, 3205, 3135, 3142, 3161, -15115, 34351, 90403, -2515, 533, -838, -381000, -477000, -3870001, 79845, 3239, 3290, 3247, 3188, 3229, 3210, 3254, 3275, 3205, 3135, 3142, 3161, -15264, 34859, 89015, -1067, 381, -685, -381000, -477000, -3570001, 79934, 3239, 3290, 3247, 3188, 3229, 3212, 3254, 3275, 3205, 3135, 3142, 3161, -15150, 34997, 89954, 152, 381, -685, -381000, -549000, -3750001, 80023, 3239, 3290, 3243, 3182, 3229, 3212, 3254, 3275, 3205, 3134, 3142, 3161, -15426, 34716, 90313, -381, 1219, -1143, -309000, -453000, -3630001, 80112, 3239, 3290, 3243, 3182, 3229, 3212, 3254, 3275, 3205, 3134, 3142, 3161, -14493, 34189, 90355, -2362, 609, -685, -405000, -405000, -3570001, 80269, 3239, 3290, 3243, 3182, 3226, 3212, 3254, 3275, 3205, 3134, 3142, 3161, -15252, 34106, 90576, -228, 685, -914, -285000, -501000, -3690001, 80358, 3232, 3291, 3243, 3182, 3226, 3212, 3254, 3275, 3205, 3134, 3142, 3161, -15420, 34303, 90170, -1829, 762, -762, -381000, -549000, -3570001, 80447, 3232, 3291, 3243, 3182, 3226, 3209, 3254, 3275, 3205, 3134, 3142, 3161, -15438, 34716, 89739, -1219, 990, -762, -453000, -525000, -3690001, 80536, 3232, 3291, 3244, 3185, 3226, 3209, 3254, 3275, 3205, 3134, 3142, 3161, -15031, 34662, 89948, -838, 685, -914, -333000, -501000, -3630001, 80625, 3232, 3291, 3244, 3185, 3226, 3209, 3254, 3275, 3205, 3134, 3142, 3161, -15306, 34680, 89990, -762, 1067, -1067, -501000, -429000, -3690001, 80714, 3232, 3291, 3244, 3185, 3226, 3209, 3254, 3275, 3205, 3134, 3142, 3161, -15318, 34506, 90331, -1067, 457, -914, -357000, -621000, -3510001, 80886, 3234, 3294, 3244, 3185, 3221, 3207, 3254, 3275, 3205, 3134, 3142, 3161, -15252, 34309, 89876, -1676, 304, -533, -525000, -573000, -3570001, 80975, 3234, 3294, 3244, 3181, 3221, 3207, 3254, 3275, 3205, 3134, 3142, 3161, -14504, 34608, 89930, -1219, 304, -381, -453000, -573000, -3510001, 81064, 3234, 3294, 3245, 3181, 3221, 3207, 3254, 3275, 3205, 3134, 3142, 3161, -15121, 34620, 90881, -1676, 381, -762, -477000, -429000, -3750001, 81153, 3234, 3294, 3245, 3181, 3221, 3207, 3254, 3275, 3205, 3134, 3142, 3161, -14552, 34291, 89488, -152, 2134, -1295, -357000, -501000, -3570001, 81242, 3234, 3294, 3245, 3181, 3226, 3207, 3254, 3275, 3205, 3134, 3142, 3161, -16185, 34728, 88285, -533, 1676, -1371, -405000, -453000, -3510001, 81331, 3234, 3294, 3245, 3181, 3226, 3207, 3254, 3275, 3205, 3134, 3142, 3161, -15085, 34764, 90457, -457, 0, -533, -381000, -429000, -3750001, 81505, 3232, 3291, 3245, 3180, 3226, 3209, 3254, 3275, 3205, 3133, 3142, 3160, -14600, 34213, 90397, -2362, -381, -76, -429000, -429000, -3630001, 81594, 3232, 3291, 3247, 3180, 3226, 3209, 3254, 3275, 3205, 3133, 3142, 3160, -14714, 34668, 89954, -1143, 457, -762, -309000, -381000, -3450001, 81683, 3232, 3291, 3247, 3180, 3226, 3209, 3254, 3275, 3205, 3133, 3142, 3160, -15025, 34758, 89099, -152, 914, -914, -501000, -549000, -3570001, 81772, 3232, 3291, 3247, 3180, 3223, 3209, 3254, 3275, 3205, 3133, 3142, 3160, -15342, 34518, 90337, -76, 1448, -1448, -405000, -525000, -3690001, 81861, 3232, 3288, 3247, 3180, 3223, 3209, 3254, 3274, 3205, 3133, 3142, 3160, -15276, 34393, 90080, -1448, 990, -762, -357000, -381000, -3570001, 81950, 3233, 3288, 3247, 3180, 3223, 3207, 3254, 3274, 3205, 3133, 3142, 3160, -15372, 34357, 90528, -1371, 990, -990, -309000, -405000, -3690001, 82110, 3233, 3288, 3248, 3182, 3223, 3207, 3254, 3274, 3206, 3132, 3142, 3160, -14732, 34435, 90636, -1219, 304, -457, -285000, -309000, -3690001, 82199, 3233, 3288, 3248, 3182, 3223, 3207, 3254, 3274, 3206, 3132, 3142, 3160, -15593, 34417, 90295, -2210, 457, -533, -357000, -429000, -3690001, 82288, 3233, 3288, 3248, 3182, 3229, 3207, 3254, 3274, 3206, 3132, 3142, 3160, -15150, 34500, 89966, -1753, 609, -609, -405000, -405000, -3570001, 82377, 3233, 3288, 3248, 3182, 3229, 3207, 3254, 3274, 3206, 3132, 3142, 3160, -15551, 34686, 89201, -152, 914, -1143, -261000, -477000, -3690001, 82466, 3239, 3288, 3248, 3183, 3229, 3206, 3254, 3274, 3206, 3132, 3142, 3160, -14995, 34776, 90253, -762, 685, -609, -309000, -501000, -3510001, 82555, 3239, 3288, 3248, 3183, 3229, 3206, 3254, 3274, 3206, 3132, 3142, 3160, -15115, 34375, 90074, -1371, 381, -609, -405000, -477000, -3690001, 82702, 3239, 3288, 3245, 3183, 3229, 3206, 3254, 3274, 3206, 3132, 3142, 3160, -15031, 34423, 90259, -2210, -228, -152, -453000, -573000, -3750001, 82791, 3239, 3288, 3245, 3183, 3223, 3206, 3254, 3274, 3206, 3132, 3142, 3160, -14612, 34883, 90361, -1295, 228, -457, -357000, -429000, -3750001, 82880, 3239, 3290, 3245, 3183, 3223, 3206, 3254, 3274, 3206, 3132, 3142, 3160, -15581, 34584, 89882, -1219, 304, -609, -549000, -525000, -3690001, 82969, 3233, 3290, 3245, 3183, 3223, 3206, 3254, 3274, 3206, 3131, 3142, 3159, -15713, 34674, 89709, -152, 1371, -1219, -333000, -405000, -3570001, 83058, 3233, 3290, 3245, 3183, 3223, 3206, 3254, 3274, 3206, 3131, 3142, 3159, -15479, 34261, 89912, -1219, 1067, -990, -429000, -477000, -3750001, 83147, 3233, 3290, 3241, 3183, 3223, 3206, 3254, 3274, 3205, 3131, 3142, 3159, -14977, 34435, 89787, -1829, 533, -609, -213000, -597000, -3750001, 83314, 3233, 3290, 3241, 3183, 3225, 3206, 3254, 3274, 3205, 3131, 3142, 3159, -15330, 34596, 90349, -228, 838, -1067, -309000, -429000, -3570001, 83403, 3233, 3294, 3241, 3183, 3225, 3206, 3254, 3274, 3205, 3131, 3142, 3159, -14989, 34267, 89966, -609, 1676, -1295, -357000, -429000, -3690001, 83492, 3237, 3294, 3241, 3181, 3225, 3206, 3254, 3274, 3205, 3131, 3142, 3158, -14714, 34147, 89960, -1905, 838, -381, -357000, -405000, -3750001, 83581, 3237, 3294, 3241, 3181, 3225, 3206, 3254, 3274, 3205, 3131, 3142, 3158, -15737, 34608, 89272, -1295, -304, -457, -453000, -597000, -3750001, 83670, 3237, 3294, 3240, 3181, 3225, 3206, 3254, 3274, 3205, 3131, 3142, 3158, -15252, 34596, 89685, 0, 762, -1143, -261000, -549000, -3690001, 83759, 3237, 3294, 3240, 3181, 3225, 3206, 3254, 3274, 3205, 3131, 3142, 3158, -14780, 34626, 89039, -381, 1524, -685, -381000, -597000, -3690001, 83927, 3234, 3290, 3240, 3181, 3226, 3206, 3254, 3274, 3205, 3131, 3142, 3158, -14181, 34536, 89661, -685, 838, -533, -381000, -597000, -3630001, 84016, 3234, 3290, 3240, 3182, 3226, 3204, 3254, 3274, 3205, 3131, 3142, 3158, -14570, 34704, 90851, -1600, 228, 152, -285000, -501000, -3750001, 84105, 3234, 3290, 3240, 3182, 3226, 3204, 3254, 3274, 3205, 3131, 3142, 3158, -15079, 34889, 89763, -990, 1067, -762, -381000, -549000, -3750001, 84194, 3234, 3290, 3245, 3182, 3226, 3204, 3254, 3274, 3206, 3131, 3142, 3158, -15952, 34237, 89661, -1219, 533, -1067, -429000, -549000, -3690001, 84283, 3234, 3290, 3245, 3182, 3226, 3204, 3254, 3274, 3206, 3131, 3142, 3158, -14947, 34195, 90176, -1829, 1295, -533, -333000, -645000, -3750001, 84372, 3234, 3290, 3245, 3182, 3227, 3204, 3254, 3273, 3206, 3131, 3142, 3158, -15150, 34375, 89141, -1676, -152, -457, -381000, -549000, -3690001, 84530, 3231, 3290, 3245, 3179, 3227, 3205, 3254, 3273, 3206, 3131, 3142, 3158, -15019, 34315, 90050, -838, 1371, -838, -429000, -501000, -3630001, 84619, 3231, 3290, 3245, 3179, 3227, 3205, 3254, 3273, 3206, 3131, 3142, 3158, -15246, 34213, 90618, -2515, -228, -381, -381000, -429000, -3810001, 84708, 3231, 3290, 3246, 3179, 3227, 3205, 3254, 3273, 3206, 3131, 3142, 3158, -15204, 34536, 89488, -1753, 152, -457, -333000, -501000, -3570001, 84797, 3231, 3290, 3246, 3179, 3227, 3205, 3254, 3273, 3206, 3131, 3142, 3158, -15761, 34829, 89583, -304, 1219, -1371, -501000, -501000, -3570001, 84886, 3231, 3289, 3246, 3179, 3225, 3205, 3254, 3272, 3206, 3131, 3142, 3158, -14905, 34381, 90176, -609, 1143, -990, -309000, -525000, -3570001, 84975, 3231, 3289, 3246, 3179, 3225, 3198, 3254, 3272, 3206, 3131, 3142, 3158, -14774, 34387, 90217, -1295, 914, -838, -477000, -597000, -3630001, 85147, 3231, 3289, 3246, 3184, 3225, 3198, 3254, 3272, 3206, 3131, 3142, 3158, -14630, 34530, 89876, -838, 381, -609, -429000, -357000, -3690001, 85236, 3231, 3289, 3247, 3184, 3225, 3198, 3254, 3272, 3205, 3131, 3142, 3158, -15246, 34423, 90038, -533, 990, -990, -381000, -453000, -3690001, 85325, 3231, 3289, 3247, 3184, 3225, 3198, 3254, 3272, 3205, 3131, 3142, 3158, -15467, 34488, 89715, -1067, 1067, -990, -357000, -405000, -3630001, 85414, 3231, 3290, 3247, 3184, 3226, 3198, 3254, 3273, 3205, 3131, 3142, 3158, -15300, 34758, 90074, -1600, 381, -457, -261000, -381000, -3750001, 85503, 3234, 3290, 3247, 3179, 3226, 3206, 3254, 3273, 3205, 3131, 3142, 3158, -15037, 34500, 90056, -990, 762, -685, -333000, -477000, -3810001, 85592, 3234, 3290, 3247, 3179, 3226, 3206, 3254, 3273, 3205, 3131, 3142, 3158, -15043, 34369, 89882, -838, 838, -762, -261000, -405000, -3570001, 85766, 3234, 3290, 3245, 3179, 3226, 3206, 3254, 3273, 3205, 3131, 3142, 3158, -15629, 34548, 89775, -1600, 533, -609, -381000, -621000, -3630001, 85855, 3234, 3290, 3245, 3179, 3226, 3206, 3254, 3274, 3205, 3131, 3142, 3158, -14983, 34494, 90014, -990, 152, -457, -453000, -381000, -3690001, 85944, 3234, 3291, 3245, 3179, 3224, 3206, 3254, 3274, 3205, 3131, 3142, 3158, -14965, 34447, 90068, 0, 1600, -1295, -453000, -525000, -3690001, 86033, 3236, 3291, 3245, 3183, 3224, 3208, 3255, 3274, 3205, 3131, 3142, 3158, -14899, 34411, 90337, -1981, 152, -381, -405000, -357000, -3750001, 86122, 3236, 3291, 3245, 3183, 3224, 3208, 3255, 3274, 3205, 3131, 3142, 3158, -15019, 34459, 89428, -609, 1829, -1295, -333000, -477000, -3750001, 86211, 3236, 3291, 3243, 3183, 3224, 3208, 3255, 3274, 3206, 3131, 3142, 3158, -14780, 34423, 